Time, Ax, Ay, Az, Gx, Gy, Gz
2, -0.01538, 0.68262, 0.14111, -40.46631, -63.35449, -13.85498
10, 0.09937, 0.65393, 0.24084, -33.69141, -59.26514, -3.05176
20, 0.04517, 0.57422, 0.11145, -17.63916, -75.98877, 8.42285
29, 0.09363, 0.45471, 0.13086, -7.44629, -88.07373, 19.59229
39, 0.06140, 0.44946, 0.17139, -6.04248, -90.08789, 28.74756
48, 0.03699, 0.45398, 0.19861, -5.49316, -94.66553, 55.48096
56, 0.01379, 0.39490, 0.18823, -1.03760, -103.82080, 55.48096
64, -0.00476, 0.39709, 0.23364, 1.95312, -107.54395, 71.83838
73, 0.02417, 0.39185, 0.31946, 0.18311, -108.33740, 88.86719
82, 0.04114, 0.43481, 0.41443, -2.31934, -108.52051, 106.07910
91, -0.00647, 0.47791, 0.49341, -2.13623, -107.97119, 120.23926
99, -0.10144, 0.48291, 0.62842, 4.51660, -107.97119, 133.30078
108, -0.13696, 0.41113, 0.76733, 23.07129, -108.88672, 151.18408
117, -0.23108, 0.32703, 0.87378, 50.90332, -107.97119, 175.35400
126, -0.26208, 0.37109, 0.97827, 79.16260, -107.05566, 237.06055
135, -0.15991, 0.58801, 1.05518, 96.55762, -81.23779, 257.14111
144, 0.06592, 0.83911, 1.14111, 85.99854, -45.77637, 253.72314
152, 0.15259, 1.02307, 1.28772, 85.99854, -45.77637, 253.72314
161, 0.17224, 1.09338, 1.38672, 92.59033, 18.98193, 203.73535
169, 0.06995, 1.14783, 1.48743, 122.98584, 18.98193, 203.73535
177, -0.02869, 1.22241, 1.50220, 160.21729, 42.72461, 176.20850
185, -0.07410, 1.24194, 1.40930, 193.11523, 71.96045, 155.39551
193, -0.15173, 1.30054, 1.39270, 209.96094, 111.69434, 138.00049
201, -0.26184, 1.34070, 1.37292, 215.51514, 147.82715, 122.55859
209, -0.33411, 1.44006, 1.32068, 222.65625, 176.81885, 107.78809
217, -0.32092, 1.52161, 1.28369, 228.39355, 201.23291, 91.73584
225, -0.32007, 1.65076, 1.24915, 228.75977, 221.37451, 70.31250
233, -0.31897, 1.75989, 1.18823, 222.35107, 238.28125, 44.06738
241, -0.31116, 1.85388, 1.00696, 215.88135, 256.65283, 11.65771
249, -0.21777, 1.89014, 0.93225, 213.19580, 275.08545, -24.04785
257, -0.21777, 1.89014, 0.93225, 212.15820, 286.80420, -68.72559
265, -0.11389, 1.93091, 0.84241, 212.15820, 286.80420, -115.60059
273, -0.16724, 1.89062, 0.66772, 203.79639, 282.34863, -117.98096
281, -0.26770, 1.78625, 0.57935, 186.46240, 268.98193, -162.47559
289, -0.41992, 1.59802, 0.51477, 163.51318, 253.66211, -196.77734
297, -0.41541, 1.37720, 0.47131, 140.38086, 237.36572, -217.40723
305, -0.33276, 1.17883, 0.42322, 116.14990, 215.51514, -223.44971
313, -0.20947, 1.04492, 0.35828, 88.19580, 191.58936, -222.16797
321, -0.09448, 0.98621, 0.31128, 56.82373, 167.29736, -219.54346
329, 0.02905, 0.93323, 0.29333, 28.38135, 144.28711, -217.10205
337, 0.14124, 0.88147, 0.21692, 7.14111, 120.48340, -219.36035
345, 0.15747, 0.84253, 0.11890, -9.64355, 97.22900, -226.62354
353, 0.15747, 0.74878, 0.00037, -26.79443, 72.08252, -237.36572
361, -0.07520, 0.73437, 0.00037, -42.41943, 41.68701, -239.19678
369, -0.22131, 0.48901, -0.07849, -42.66357, 41.68701, -239.19678
377, -0.23389, 0.23938, -0.12463, -59.20410, 12.45117, -222.35107
385, -0.21338, 0.05017, -0.18555, -80.07813, -12.93945, -190.91797
393, -0.24097, -0.07141, -0.22791, -107.17773, -38.87939, -153.93066
402, -0.21558, -0.16785, -0.24133, -136.29150, -65.61279, -111.51123
411, -0.12842, -0.28320, -0.23206, -161.31592, -98.81592, -64.88037
423, -0.15356, -0.39246, -0.06311, -190.73486, -186.15723, 14.40430
432, -0.22461, -0.45154, 0.06750, -195.06836, -235.71777, 52.00195
441, -0.28723, -0.50488, 0.21423, -199.09668, -280.88379, 92.34619
449, -0.38159, -0.42566, 0.35791, -207.76367, -321.10596, 133.30078
458, -0.25244, -0.22693, 0.51306, -234.61914, -347.96143, 170.77637
467, -0.25977, -0.04395, 0.69531, -277.09961, -353.75977, 197.20459
475, -0.32495, 0.11328, 0.92603, -320.00732, -348.57178, 212.21924
484, -0.38000, 0.29102, 1.16125, -354.73633, -331.11572, 226.25732
493, -0.43628, 0.41394, 1.35864, -375.36621, -301.08643, 241.88232
501, -0.50659, 0.58545, 1.57373, -378.54004, -263.61084, 257.69043
510, -0.46948, 0.79602, 1.80176, -360.22949, -220.82520, 273.25439
519, -0.40173, 1.00818, 2.02881, -315.85693, -170.04395, 281.25000
528, -0.38660, 1.10535, 2.17224, -240.17334, -111.99951, 274.10889
537, -0.40222, 1.20435, 2.24219, -144.16504, -52.49023, 258.05664
546, -0.40588, 1.30835, 2.21362, -45.59326, 17.27295, 238.70850
556, -0.50793, 1.38745, 2.04895, 45.41016, 95.82520, 214.59961
564, -0.65796, 1.47986, 1.82629, 121.21582, 172.60742, 189.08691
572, -0.74426, 1.55286, 1.61682, 176.33057, 239.31885, 166.32080
581, -0.79565, 1.57458, 1.48584, 207.45850, 299.25537, 145.26367
590, -0.86865, 1.58374, 1.39941, 220.39795, 357.11670, 122.98584
598, -0.89673, 1.60669, 1.38220, 224.18213, 409.48486, 98.75488
607, -0.82593, 1.65076, 1.32202, 227.66113, 451.04980, 71.83838
616, -0.79480, 1.80408, 1.20850, 236.26709, 469.42139, 37.84180
625, -0.59045, 1.97327, 1.02197, 254.39453, 461.60889, -3.47900
635, -0.39990, 2.05066, 0.71143, 271.97266, 432.98340, -53.03955
643, -0.26123, 2.05945, 0.45020, 263.91602, 401.85547, -107.84912
652, -0.18384, 1.97607, 0.27783, 226.68457, 374.14551, -162.41455
661, -0.17969, 1.83032, 0.17859, 178.95508, 337.15820, -213.13477
670, -0.26501, 1.59778, 0.09863, 137.14600, 283.99658, -253.72314
679, -0.53503, 1.37891, 0.04956, 98.81592, 225.28076, -279.35791
688, -0.38940, 1.06873, 0.08496, 59.44824, 183.95996, -282.89795
696, -0.27649, 0.90405, 0.12915, 13.97705, 149.59717, -271.24023
705, -0.15479, 0.84680, 0.15601, -25.39063, 123.90137, -260.74219
713, -0.05847, 0.82532, 0.18530, -54.50439, 101.68457, -256.95801
722, -0.02393, 0.80151, 0.17114, -71.96045, 81.05469, -260.13184
731, -0.25854, 0.67468, 0.05383, -82.45850, 57.86133, -267.27295
740, -0.31287, 0.38184, 0.10388, -93.01758, 27.95410, -267.88330
749, -0.33179, 0.22290, 0.11975, -101.44043, 4.02832, -251.77002
758, -0.27515, 0.06201, 0.06665, -104.49219, -17.33398, -221.92383
766, -0.21582, -0.07959, -0.00208, -110.71777, -41.62598, -185.18066
774, -0.16248, -0.15552, -0.02625, -125.42725, -66.83350, -149.41406
783, -0.15491, -0.25757, 0.01489, -143.73779, -91.67480, -115.96680
792, -0.17529, -0.36755, 0.01379, -158.26416, -120.78857, -79.71191
800, -0.20190, -0.44897, 0.05627, -174.62158, -154.05273, -39.36768
809, -0.20081, -0.50415, 0.13013, -195.61768, -187.50000, 0.67139
818, -0.34033, -0.51807, 0.15881, -221.92383, -218.32275, 41.50391
827, -0.39331, -0.45923, 0.29675, -254.82178, -246.76514, 87.58545
836, -0.38269, -0.31311, 0.52356, -288.02490, -269.10400, 131.59180
844, -0.37439, -0.19910, 0.73450, -312.43896, -284.30176, 168.57910
853, -0.36951, -0.03284, 0.95959, -326.04980, -294.00635, 196.71631
862, -0.41187, 0.11572, 1.14343, -331.29883, -292.84668, 217.22412
871, -0.43018, 0.23804, 1.34473, -329.46777, -277.70996, 236.02295
879, -0.27588, 0.36792, 1.43677, -317.01660, -252.19727, 252.19727
887, -0.46289, 0.66235, 1.70203, -290.52734, -213.86719, 259.21631
895, -0.37061, 0.68787, 1.79053, -244.68994, -176.20850, 263.36670
904, -0.39148, 0.79810, 1.86853, -188.72070, -130.43213, 264.52637
913, -0.41003, 0.97131, 1.95569, -126.89209, -80.68848, 261.10840
922, -0.41138, 1.09070, 1.94873, -55.35889, -29.60205, 254.39453
930, -0.44971, 1.20349, 1.85327, 18.12744, 19.22607, 242.18750
938, -0.50488, 1.29614, 1.73328, 81.90918, 66.34521, 226.37939
947, -0.55786, 1.38123, 1.59216, 129.33350, 114.56299, 209.89990
955, -0.59326, 1.45166, 1.46069, 162.71973, 160.27832, 191.77246
964, -0.60510, 1.50696, 1.41040, 182.06787, 199.34082, 171.44775
972, -0.63257, 1.55615, 1.41968, 188.72070, 243.34717, 148.74268
981, -0.66736, 1.62427, 1.49390, 190.06348, 294.61670, 123.96240
990, -0.69556, 1.68176, 1.52307, 196.77734, 344.90967, 95.64209
998, -0.67444, 1.74963, 1.46484, 212.46338, 385.86426, 63.78174
1006, -0.60742, 1.85120, 1.29187, 233.70361, 407.71484, 28.25928
1015, -0.36206, 1.90942, 1.03564, 254.57764, 405.94482, -11.04736
1024, -0.26135, 1.94641, 0.72742, 264.03809, 383.42285, -55.84717
1032, -0.17676, 1.90906, 0.46313, 248.22998, 357.84912, -105.52979
1040, -0.17017, 1.75671, 0.30383, 209.65576, 328.36914, -152.34375
1048, -0.17017, 1.75671, 0.21008, 164.48975, 289.24561, -192.32178
1056, -0.18689, 1.54590, 0.20374, 164.48975, 241.88232, -223.02246
1064, -0.21948, 1.31750, 0.17102, 122.92480, 241.88232, -223.02246
1073, -0.25818, 1.06567, 0.14819, 84.77783, 193.78662, -241.39404
1081, -0.30444, 0.84863, 0.15125, 44.86084, 153.56445, -246.15479
1090, -0.33948, 0.71265, 0.21484, 6.71387, 124.14551, -243.10303
1099, -0.25317, 0.60107, 0.20215, -20.26367, 104.00391, -231.68945
1108, -0.22742, 0.51733, 0.14514, -41.50391, 85.51025, -211.24268
1116, -0.17297, 0.43835, 0.06567, -59.63135, 67.32178, -211.24268
1124, -0.15063, 0.36914, -0.06055, -75.74463, 48.58398, -200.13428
1134, -0.14404, 0.27881, -0.18420, -93.13965, 23.86475, -173.33984
1143, -0.12439, 0.16345, -0.25952, -127.19727, -43.45703, -156.00586
1152, -0.19885, 0.02563, -0.33057, -153.74756, -82.82471, -134.15527
1160, -0.25195, -0.14185, -0.30249, -153.74756, -82.82471, -102.60010
1169, -0.31128, -0.29150, -0.25085, -181.09131, -152.52686, -61.88965
1178, -0.38892, -0.39978, -0.16467, -231.38428, -189.88037, -14.70947
1187, -0.44556, -0.47424, 0.09583, -247.49756, -226.74561, 36.01074
1196, -0.59033, -0.47266, 0.28125, -257.50732, -260.55908, 87.34131
1205, -0.63452, -0.39221, 0.44104, -261.47461, -293.94531, 136.16943
1214, -0.61475, -0.22229, 0.59680, -267.39502, -325.19531, 180.17578
1223, -0.55005, -0.02344, 0.79260, -280.70068, -344.05518, 214.17236
1232, -0.53027, 0.20215, 0.99109, -298.33984, -346.61865, 236.32812
1241, -0.47046, 0.40125, 1.21045, -318.35937, -330.07812, 249.14551
1249, -0.44873, 0.59619, 1.45911, -332.03125, -297.91260, 254.94385
1258, -0.43762, 0.74353, 1.67334, -329.77295, -252.56348, 255.43213
1267, -0.48059, 0.85950, 1.88647, -301.69678, -201.41602, 252.68555
1276, -0.50366, 0.98682, 2.12378, -244.38477, -151.97754, 247.13135
1285, -0.53784, 1.05518, 2.24414, -159.11865, -101.56250, 237.85400
1294, -0.63757, 1.08923, 2.26123, -57.55615, -45.53223, 224.79248
1303, -0.70959, 1.16602, 2.15112, 41.25977, 15.38086, 212.95166
1311, -0.75598, 1.27295, 1.97302, 124.93896, 83.19092, 203.97949
1319, -0.78943, 1.38623, 1.78174, 187.43896, 150.14648, 193.78662
1327, -0.80542, 1.46948, 1.58691, 235.04639, 208.43506, 179.26025
1335, -0.83667, 1.49902, 1.43445, 266.11328, 252.86865, 159.24072
1343, -0.82117, 1.49902, 1.43445, 274.23096, 296.99707, 138.73291
1351, -0.84680, 1.47351, 1.33215, 274.23096, 296.99707, 138.73291
1359, -0.87402, 1.46436, 1.30444, 263.18359, 344.90967, 116.82129
1367, -0.84766, 1.48157, 1.31531, 245.42236, 390.74707, 94.23828
1375, -0.76733, 1.52649, 1.28979, 234.49707, 427.24609, 68.72559
1383, -0.62427, 1.64258, 1.20264, 241.14990, 437.50000, 35.33936
1391, -0.48291, 1.72705, 0.96436, 261.29150, 414.91699, -3.78418
1399, -0.33167, 1.74377, 0.71277, 271.48437, 381.10352, -45.83740
1407, -0.22095, 1.68848, 0.47827, 253.72314, 355.10254, -88.43994
1415, -0.13074, 1.60730, 0.32971, 212.28027, 331.60400, -131.34766
1423, -0.08716, 1.47900, 0.25244, 162.53662, 300.23193, -175.29297
1431, -0.13953, 1.31384, 0.20020, 115.66162, 260.68115, -217.46826
1439, -0.13953, 1.31384, 0.20020, 72.44873, 218.07861, -251.03760
1447, -0.22363, 1.10547, 0.20532, 72.44873, 174.80469, -272.58301
1455, -0.33032, 0.89172, 0.24292, 34.85107, 174.80469, -272.58301
1463, -0.38464, 0.68884, 0.33350, 2.56348, 139.70947, -281.37207
1471, -0.39502, 0.54333, 0.35156, -19.16504, 116.27197, -277.95410
1479, -0.30713, 0.48608, 0.28418, -34.54590, 97.16797, -266.96777
1487, -0.19739, 0.45825, 0.12830, -50.96436, 78.61328, -255.12695
1495, -0.13049, 0.43823, 0.06128, -73.54736, 56.70166, -249.81689
1503, -0.08984, 0.40527, 0.03467, -94.72656, 30.15137, -248.47412
1511, -0.16711, 0.32141, -0.03833, -109.80225, -0.36621, -246.64307
1520, -0.24695, 0.15601, -0.07410, -125.06104, -37.96387, -240.47852
1528, -0.35974, -0.04358, -0.08276, -143.12744, -78.55225, -224.85352
1537, -0.42285, -0.23682, -0.06140, -166.99219, -116.14990, -197.26562
1546, -0.46509, -0.39209, -0.00183, -196.22803, -150.14648, -159.24072
1554, -0.48718, -0.48999, 0.11731, -229.12598, -179.74854, -115.29541
1563, -0.53735, -0.53101, 0.28955, -259.09424, -203.61328, -67.38281
1572, -0.58105, -0.53809, 0.48877, -277.77100, -228.51562, -17.45605
1581, -0.64832, -0.53040, 0.66370, -280.45654, -255.67627, 31.79932
1589, -0.66016, -0.45349, 0.85425, -273.43750, -282.83691, 79.83398
1598, -0.63037, -0.36169, 1.01770, -266.17432, -300.53711, 121.70410
1610, -0.58899, -0.21814, 1.24292, -264.28223, -299.19434, 156.79932
1619, -0.43103, -0.06396, 1.44189, -267.08984, -280.70068, 185.30273
1627, -0.35046, 0.11523, 1.57800, -267.82227, -243.59131, 201.35498
1636, -0.30652, 0.27234, 1.65955, -266.90674, -193.48145, 209.59473
1645, -0.33081, 0.37793, 1.67566, -259.70459, -142.94434, 215.02686
1654, -0.42114, 0.48523, 1.69873, -236.69434, -101.31836, 218.07861
1663, -0.48474, 0.56152, 1.75293, -191.58936, -72.50977, 222.65625
1671, -0.51038, 0.64990, 1.76904, -130.12695, -50.10986, 228.14941
1680, -0.49597, 0.79443, 1.77368, -65.97900, -23.68164, 229.91943
1689, -0.47437, 0.93860, 1.75769, -9.88770, 11.29150, 226.74561
1697, -0.48120, 1.09680, 1.72876, 37.84180, 54.56543, 217.46826
1705, -0.46729, 1.24561, 1.70215, 79.40674, 100.28076, 203.55225
1713, -0.48560, 1.34033, 1.67139, 116.33301, 146.48437, 183.04443
1721, -0.55957, 1.39661, 1.64038, 148.31543, 193.54248, 156.73828
1729, -0.64343, 1.42773, 1.64172, 173.46191, 242.85889, 131.83594
1737, -0.68677, 1.44458, 1.63159, 193.35937, 292.48047, 109.13086
1745, -0.73767, 1.42590, 1.56946, 208.86230, 342.22412, 87.15820
1753, -0.74402, 1.42761, 1.53149, 218.01758, 389.28223, 65.67383
1761, -0.72485, 1.43518, 1.44348, 226.37939, 428.58887, 42.35840
1769, -0.72485, 1.43518, 1.44348, 238.58643, 447.32666, 16.60156
1777, -0.63110, 1.44580, 1.27515, 238.58643, 447.32666, -9.88770
1786, -0.48413, 1.49634, 1.02405, 253.35693, 399.65820, -38.14697
1795, -0.29456, 1.51013, 0.71533, 254.76074, 356.99463, -70.31250
1803, -0.11292, 1.43958, 0.42639, 254.76074, 356.99463, -104.43115
1812, 0.02087, 1.35278, 0.17871, 221.80176, 280.63965, -137.45117
1820, 0.12610, 1.22375, 0.08569, 164.06250, 280.63965, -137.45117
1829, 0.14453, 1.08997, 0.08643, 104.30908, 244.62891, -171.99707
1837, 0.09229, 0.94006, 0.13159, 56.88477, 202.39258, -206.11572
1846, 0.01270, 0.77954, 0.16272, 21.17920, 159.91211, -233.64258
1855, -0.04102, 0.60400, 0.17810, -9.76562, 124.75586, -250.61035
1864, -0.10168, 0.46216, 0.17676, -38.81836, 84.16748, -260.98633
1873, -0.15308, 0.35059, 0.16748, -86.97510, 55.96924, -255.06592
1881, -0.16418, 0.24072, 0.11035, -86.97510, 55.96924, -255.06592
1889, -0.15881, 0.14465, 0.02795, -103.33252, 29.41895, -243.16406
1898, -0.17212, 0.06445, -0.06665, -119.99512, -1.89209, -229.49219
1907, -0.19189, -0.03821, -0.13965, -139.52637, -36.92627, -213.98926
1916, -0.25366, -0.15710, -0.15771, -164.30664, -75.92773, -170.41016
1925, -0.34265, -0.29761, -0.10889, -194.58008, -152.46582, -137.51221
1934, -0.37659, -0.40613, -0.02271, -260.25391, -182.92236, -98.63281
1943, -0.42981, -0.47424, 0.27197, -291.13770, -210.02197, -55.41992
1952, -0.55249, -0.51282, 0.43127, -308.41064, -237.85400, -10.86426
1961, -0.64136, -0.50867, 0.61951, -312.13379, -268.79883, 33.81348
1970, -0.75867, -0.50452, 0.78247, -305.29785, -297.05811, 80.93262
1979, -0.83081, -0.44971, 0.98706, -291.80908, -316.65039, 129.02832
1988, -0.91101, -0.37415, 1.11963, -274.41406, -325.80566, 176.08643
1997, -0.86963, -0.21826, 1.34814, -264.58740, -321.53320, 220.27588
2005, -0.63794, 0.03711, 1.56897, -265.31982, -298.70605, 253.35693
2014, -0.36707, 0.33411, 1.71326, -276.42822, -250.42725, 270.93506
2023, -0.15198, 0.59570, 1.84741, -289.18457, -175.84229, 271.66748
2032, -0.14490, 0.88208, 2.02771, -276.91650, -105.77393, 252.19727
2041, -0.20105, 1.11060, 2.07898, -221.55762, -64.27002, 225.28076
2050, -0.24316, 1.17285, 2.09656, -133.66699, -43.76221, 199.58496
2059, -0.35779, 1.14832, 2.00525, -39.97803, -20.50781, 174.13330
2068, -0.53174, 1.14490, 1.87073, 38.87939, 17.57813, 152.28271
2076, -0.65588, 1.19055, 1.75891, 98.14453, 65.06348, 140.86914
2085, -0.67578, 1.25745, 1.69641, 143.24951, 112.48779, 136.71875
2094, -0.64612, 1.33411, 1.57202, 181.39648, 152.95410, 129.82178
2102, -0.58398, 1.40161, 1.40906, 207.58057, 185.72998, 117.12646
2111, -0.49109, 1.46167, 1.28650, 214.23340, 218.68896, 99.91455
2119, -0.43359, 1.51501, 1.27808, 204.52881, 255.67627, 76.29395
2128, -0.40808, 1.52466, 1.31738, 195.98389, 296.02051, 47.48535
2136, -0.39258, 1.53821, 1.31238, 196.41113, 331.11572, 13.85498
2145, -0.43848, 1.51343, 1.22778, 203.12500, 358.09326, -21.05713
2153, -0.45227, 1.46021, 1.12158, 210.44922, 375.91553, -55.05371
2162, -0.44739, 1.40784, 0.97729, 217.10205, 381.46973, -84.71680
2171, -0.40320, 1.34717, 0.77063, 221.13037, 368.10303, -108.39844
2179, -0.34070, 1.23730, 0.53040, 217.46826, 337.70752, -126.52588
2187, -0.24194, 1.12158, 0.35535, 198.85254, 301.81885, -141.78467
2196, -0.17188, 0.99792, 0.28662, 167.90771, 266.90674, -156.31104
2204, -0.07813, 0.89783, 0.32642, 132.14111, 235.47363, -170.10498
2212, -0.07397, 0.89783, 0.32642, 100.34180, 210.44922, -184.38721
2220, -0.01123, 0.82336, 0.40088, 100.34180, 210.44922, -184.38721
2229, 0.01306, 0.77820, 0.49268, 76.78223, 179.07715, -215.94238
2238, -0.01636, 0.69946, 0.50122, 59.08203, 164.36768, -226.13525
2247, -0.12524, 0.59583, 0.43018, 53.46680, 138.00049, -227.35596
2256, -0.21228, 0.20911, 0.25488, 46.44775, 108.88672, -216.43066
2265, -0.27332, -0.01501, 0.10583, 37.29248, 79.71191, -195.92285
2273, -0.27332, -0.01501, 0.10583, 16.66260, 53.95508, -168.15186
2282, -0.25037, -0.29370, -0.14844, -15.62500, 27.95410, -136.29150
2292, -0.08594, -0.35535, -0.23755, -54.32129, 0.48828, -103.14941
2302, -0.04395, -0.37878, -0.22375, -94.36035, -29.23584, -71.77734
2312, -0.00793, -0.42590, -0.16504, -130.49316, -66.65039, -43.94531
2322, 0.00000, -0.48120, -0.09680, -165.46631, -105.28564, -19.04297
2331, -0.00024, -0.48889, -0.00183, -198.97461, -136.84082, 4.27246
2339, -0.01379, -0.46448, 0.18140, -228.75977, -166.74805, 27.09961
2349, -0.07434, -0.45264, 0.38025, -245.48340, -200.19531, 50.78125
2357, -0.13965, -0.52393, 0.51172, -247.61963, -237.73193, 72.99805
2366, -0.25342, -0.52344, 0.62646, -246.21582, -272.03369, 93.20068
2375, -0.43579, -0.48389, 0.79614, -247.19238, -299.80469, 115.05127
2384, -0.48950, -0.41125, 0.97241, -243.89648, -321.47217, 143.43262
2392, -0.46106, -0.26514, 1.11133, -239.19678, -335.81543, 173.15674
2401, -0.44299, -0.09436, 1.21692, -234.13086, -335.93750, 195.25146
2409, -0.37793, 0.05115, 1.36389, -235.71777, -319.15283, 210.14404
2417, -0.34570, 0.22754, 1.52087, -241.08887, -285.52246, 218.93311
2425, -0.25793, 0.40125, 1.71875, -242.49268, -241.27197, 222.96143
2433, -0.27905, 0.49182, 1.82495, -229.24805, -192.68799, 220.70312
2441, -0.37402, 0.55481, 1.87866, -203.55225, -142.94434, 214.53857
2449, -0.47314, 0.61462, 1.93323, -170.10498, -98.08350, 212.15820
2457, -0.52026, 0.71130, 1.96802, -127.68555, -54.80957, 214.23340
2465, -0.53406, 0.84668, 1.95789, -73.66943, -12.39014, 215.57617
2473, -0.53406, 0.84668, 1.89539, -15.74707, 27.22168, 212.21924
2481, -0.52698, 0.98987, 1.88721, -15.74707, 74.09668, 201.78223
2489, -0.53918, 1.13367, 1.80249, 36.56006, 66.16211, 201.78223
2497, -0.54993, 1.23450, 1.68225, 78.91846, 105.95703, 185.72998
2505, -0.59570, 1.31995, 1.58533, 111.32813, 147.39990, 166.19873
2513, -0.62305, 1.37671, 1.51343, 137.45117, 184.87549, 145.32471
2521, -0.62451, 1.41772, 1.41650, 154.84619, 219.48242, 123.41309
2529, -0.65845, 1.43835, 1.39026, 157.71484, 260.00977, 100.52490
2537, -0.70068, 1.45020, 1.37097, 153.19824, 306.33545, 76.35498
2545, -0.73682, 1.45764, 1.30652, 151.91650, 349.24316, 51.75781
2553, -0.70703, 1.45618, 1.18982, 154.60205, 379.88281, 26.06201
2561, -0.62781, 1.48865, 1.02454, 161.07178, 389.77051, -1.52588
2569, -0.51501, 1.49951, 0.79053, 171.63086, 372.68066, -31.61621
2578, -0.37476, 1.45691, 0.49890, 180.96924, 335.81543, -64.08691
2587, -0.25342, 1.34900, 0.23047, 171.44775, 294.06738, -97.59521
2596, -0.16602, 1.20166, 0.04102, 135.19287, 258.17871, -128.84521
2606, -0.12854, 1.05383, -0.01514, 80.26123, 226.62354, -158.32520
2616, -0.13245, 0.90747, 0.02686, 26.36719, 194.51904, -185.11963
2625, -0.15479, 0.79346, 0.09119, -13.79395, 163.14697, -206.97021
2634, -0.22217, 0.64001, 0.10706, -41.07666, 134.88770, -223.20557
2643, -0.28088, 0.49109, 0.14294, -60.36377, 109.19189, -233.15430
2652, -0.32373, 0.35193, 0.20972, -70.49561, 88.43994, -235.04639
2660, -0.29675, 0.16577, 0.15137, -66.95557, 68.48145, -226.25732
2669, -0.19141, 0.02808, 0.07458, -59.93652, 47.05811, -210.81543
2678, -0.11670, -0.05029, -0.01697, -57.80029, 25.87891, -198.12012
2687, 0.03088, -0.13684, -0.10291, -59.50928, 2.92969, -189.02588
2696, 0.12988, -0.25586, -0.19348, -67.74902, -26.61133, -184.69238
2705, 0.05029, -0.37183, -0.23230, -84.22852, -65.91797, -184.26514
2714, -0.11438, -0.57898, -0.20935, -106.50635, -111.08398, -182.86133
2723, -0.29041, -0.82947, -0.07654, -132.44629, -159.30176, -169.06738
2731, -0.45801, -1.06384, 0.11462, -158.02002, -203.18604, -136.84082
2740, -0.51733, -1.23755, 0.27893, -181.21338, -244.93408, -87.15820
2749, -0.61365, -1.24707, 0.41943, -205.32227, -284.66797, -26.00098
2758, -0.79956, -1.04187, 0.62817, -229.00391, -319.94629, 33.44727
2767, -0.66785, -0.92236, 0.82617, -246.03271, -340.02686, 86.05957
2776, -0.62488, -0.67761, 1.12732, -262.75635, -346.86279, 130.31006
2785, -0.58838, -0.41174, 1.47961, -275.57373, -336.42578, 185.66895
2794, -0.50098, -0.16626, 1.83313, -260.07080, -260.19287, 201.72119
2803, -0.38440, 0.06506, 2.11462, -232.84912, -196.22803, 207.70264
2812, -0.32703, 0.44397, 2.58655, -182.73926, -124.02344, 208.31299
2821, -0.46533, 0.57520, 2.60059, -106.38428, -56.27441, 204.58984
2830, -0.53113, 0.69202, 2.50378, -15.19775, -3.78418, 201.04980
2839, -0.59680, 0.79639, 2.26428, 73.24219, 37.04834, 200.13428
2847, -0.60803, 0.92187, 2.00000, 138.67187, 73.97461, 198.73047
2855, -0.60803, 0.92187, 2.00000, 172.36328, 108.21533, 196.41113
2863, -0.57727, 1.07056, 1.77551, 172.36328, 108.21533, 196.41113
2872, -0.47803, 1.22180, 1.62500, 181.64062, 168.39600, 171.75293
2880, -0.39905, 1.37195, 1.54114, 173.21777, 163.69629, 171.75293
2888, -0.34412, 1.47229, 1.52454, 153.68652, 194.94629, 145.14160
2897, -0.35864, 1.51477, 1.55225, 133.97217, 229.24805, 111.63330
2905, -0.42517, 1.51367, 1.58765, 124.14551, 263.73291, 76.72119
2914, -0.49011, 1.47827, 1.59839, 125.91553, 295.59326, 43.88428
2922, -0.52698, 1.43713, 1.52649, 138.61084, 322.38770, 16.11328
2930, -0.53284, 1.36243, 1.38013, 151.36719, 340.02686, -7.38525
2938, -0.51184, 1.30127, 1.21643, 155.21240, 349.60937, -27.40479
2946, -0.40710, 1.28125, 1.01660, 153.38135, 348.20557, -44.18945
2955, -0.26685, 1.28516, 0.81409, 151.00098, 328.73535, -62.50000
2965, -0.11560, 1.24866, 0.60071, 148.01025, 294.12842, -86.79199
2975, 0.02930, 1.16626, 0.40186, 136.41357, 259.03320, -114.80713
2983, 0.10461, 1.07764, 0.26172, 108.15430, 231.68945, -146.78955
2992, 0.08533, 0.98328, 0.17700, 71.22803, 207.15332, -180.29785
3001, 0.05359, 0.87207, 0.13477, 34.30176, 181.39648, -211.30371
3011, -0.01611, 0.74878, 0.11780, 3.90625, 139.95361, -259.70459
3020, -0.16821, 0.55701, 0.08472, -29.54102, 97.47314, -271.05713
3029, -0.25110, 0.31909, 0.04919, -42.60254, 70.67871, -271.24023
3038, -0.33325, -0.07532, -0.06677, -57.92236, 44.43359, -261.23047
3047, -0.27576, -0.20203, -0.17017, -73.18115, 17.15088, -242.55371
3056, -0.17944, -0.28943, -0.28735, -90.88135, -13.12256, -220.82520
3065, -0.14734, -0.34668, -0.32263, -115.84473, -46.99707, -202.69775
3074, -0.13000, -0.42664, -0.29236, -142.63916, -85.14404, -186.82861
3083, -0.14478, -0.50391, -0.24194, -167.84668, -126.83105, -171.08154
3092, -0.27417, -0.60217, -0.11279, -193.23730, -170.04395, -155.39551
3101, -0.38074, -0.72803, 0.10571, -216.43066, -213.13477, -135.19287
3110, -0.47278, -0.84753, 0.29517, -229.67529, -253.35693, -103.82080
3119, -0.57898, -0.88318, 0.50415, -234.98535, -294.12842, -64.75830
3128, -0.82288, -0.81348, 0.75305, -234.43604, -330.26123, -23.62061
3136, -0.83081, -0.85474, 1.03650, -223.51074, -353.63770, 17.51709
3145, -0.84839, -0.82019, 1.28748, -208.80127, -365.90576, 62.68311
3154, -0.83679, -0.76086, 1.46216, -199.64600, -355.40771, 107.23877
3163, -0.84827, -0.69531, 1.71643, -202.69775, -321.16699, 148.74268
3172, -0.81653, -0.59229, 1.82239, -206.78711, -275.69580, 191.83350
3181, -0.72620, -0.36877, 1.95752, -219.29932, -217.46826, 230.40771
3190, -0.69653, -0.10059, 2.05615, -233.21533, -149.16992, 260.98633
3199, -0.60193, 0.24146, 2.11853, -232.29980, -87.40234, 282.34863
3208, -0.50098, 0.52710, 2.09656, -209.65576, -40.28320, 288.81836
3221, -0.47925, 0.92542, 2.02051, -112.67090, 17.33398, 266.60156
3230, -0.48376, 1.03931, 1.94983, -51.14746, 37.29248, 249.08447
3239, -0.48547, 1.14331, 1.85937, 3.47900, 62.92725, 230.65186
3247, -0.51599, 1.25000, 1.75024, 44.79980, 94.66553, 209.59473
3256, -0.54224, 1.31506, 1.65454, 72.44873, 131.65283, 187.37793
3264, -0.57349, 1.34912, 1.57544, 87.46338, 173.27881, 165.40527
3273, -0.60254, 1.34692, 1.51477, 95.94727, 214.53857, 143.18848
3281, -0.60254, 1.34692, 1.51477, 99.30420, 255.61523, 121.88721
3290, -0.60059, 1.37756, 1.48499, 99.73145, 298.58398, 98.38867
3298, -0.60266, 1.37756, 1.48499, 102.78320, 340.20996, 72.20459
3306, -0.63147, 1.39734, 1.48706, 102.78320, 340.20996, 72.20459
3314, -0.62366, 1.38562, 1.44531, 113.28125, 374.02344, 45.28809
3322, -0.55457, 1.39172, 1.29175, 133.42285, 391.41846, 16.96777
3330, -0.43848, 1.42871, 1.03845, 157.53174, 386.65771, -12.51221
3338, -0.28760, 1.44409, 0.75073, 177.36816, 362.06055, -46.14258
3346, -0.12622, 1.41125, 0.44385, 184.02100, 325.92773, -83.98438
3354, -0.00452, 1.29431, 0.19324, 164.97803, 291.25977, -122.74170
3362, 0.00708, 1.11487, 0.03564, 123.96240, 260.19287, -161.56006
3370, -0.05762, 0.89575, -0.01770, 76.17188, 224.24316, -197.32666
3378, -0.15271, 0.67761, -0.01331, 32.95898, 184.44824, -224.79248
3386, -0.20129, 0.50891, 0.06836, -6.16455, 149.35303, -240.72266
3394, -0.20129, 0.50891, 0.06836, -37.10938, 123.90137, -246.09375
3402, -0.23291, 0.38049, 0.16443, -37.10938, 108.27637, -244.62891
3410, -0.28894, 0.29321, 0.18213, -52.24609, 103.08838, -244.62891
3418, -0.17822, 0.18420, 0.14038, -56.03027, 85.63232, -239.68506
3426, -0.14221, 0.12720, 0.02795, -57.31201, 66.34521, -232.78809
3434, -0.03735, 0.05713, -0.05066, -60.36377, 43.51807, -230.65186
3442, -0.00586, -0.01086, -0.17822, -66.71143, 16.66260, -231.07910
3450, -0.08008, -0.14502, -0.27368, -80.81055, -17.76123, -231.75049
3458, -0.15649, -0.32532, -0.29712, -102.53906, -61.76758, -228.33252
3466, -0.34766, -0.56311, -0.28052, -129.15039, -110.83984, -216.06445
3475, -0.46484, -0.75513, -0.13000, -163.81836, -158.69141, -189.94141
3483, -0.57532, -0.91919, -0.00537, -199.40186, -198.79150, -147.58301
3491, -0.70605, -1.05383, 0.16821, -232.54395, -235.90088, -94.60449
3499, -0.80713, -1.10437, 0.40771, -256.16455, -275.26855, -32.10449
3507, -0.80713, -1.10437, 0.62646, -262.63428, -311.70654, 35.76660
3515, -0.99158, -1.07715, 0.64929, -262.63428, -342.34619, 104.24805
3523, -1.00659, -1.00061, 0.88708, -255.67627, -342.34619, 104.24805
3531, -0.95605, -0.77039, 1.14758, -242.98096, -367.61475, 164.24561
3539, -0.80835, -0.60559, 1.39111, -232.60498, -370.60547, 208.06885
3548, -0.70129, -0.43494, 1.64087, -229.12598, -342.65137, 237.06055
3556, -0.55823, -0.24939, 1.82776, -234.13086, -290.22217, 255.37109
3564, -0.41711, -0.01453, 1.99695, -248.10791, -217.65137, 266.72363
3572, -0.36206, 0.29150, 2.14136, -258.54492, -134.88770, 269.77539
3581, -0.45496, 0.50720, 2.18909, -235.53467, -64.08691, 263.91602
3590, -0.56775, 0.63794, 2.19019, -173.15674, -25.26855, 256.04248
3598, -0.65784, 0.75732, 2.15784, -86.66992, -8.11768, 249.57275
3606, -0.70508, 0.87769, 2.08655, -0.67139, 9.82666, 244.93408
3615, -0.66797, 1.05383, 1.94080, 64.75830, 41.93115, 241.39404
3623, -0.56299, 1.26282, 1.82361, 103.63770, 85.20508, 232.42187
3632, -0.45752, 1.47534, 1.66699, 123.84033, 129.39453, 212.15820
3640, -0.39514, 1.56628, 1.60510, 128.78418, 176.02539, 179.07715
3648, -0.39319, 1.57825, 1.50562, 129.27246, 220.88623, 136.29150
3656, -0.47424, 1.53577, 1.45227, 124.26758, 261.71875, 91.00342
3664, -0.55603, 1.46936, 1.44104, 119.32373, 297.36328, 49.19434
3673, -0.58252, 1.43677, 1.42444, 118.40820, 327.94189, 14.89258
3682, -0.60815, 1.40088, 1.35291, 123.29102, 354.18701, -12.75635
3691, -0.58691, 1.37268, 1.22327, 131.59180, 368.77441, -36.80420
3700, -0.47009, 1.31055, 1.04712, 142.39502, 367.55371, -59.57031
3709, -0.35278, 1.27161, 0.79370, 151.61133, 348.99902, -84.22852
3717, -0.21497, 1.20215, 0.52100, 151.67236, 316.22314, -109.98535
3726, -0.09839, 1.06177, 0.28784, 139.40430, 275.51270, -138.24463
3734, -0.02991, 0.89917, 0.13538, 113.40332, 235.35156, -166.07666
3742, -0.00073, 0.73071, 0.03503, 76.23291, 199.40186, -192.01660
3751, -0.00073, 0.60291, 0.00488, 33.32520, 166.32080, -214.59961
3760, -0.04395, 0.48181, 0.03394, -5.98145, 134.76562, -233.27637
3769, -0.11450, 0.33276, 0.08813, -34.17969, 103.94287, -246.15479
3779, -0.24817, 0.16174, 0.09485, -47.18018, 72.81494, -249.75586
3788, -0.24817, -0.05774, 0.06079, -51.39160, 42.72461, -241.57715
3797, -0.19080, -0.19910, -0.00708, -56.39648, 14.28223, -224.67041
3805, -0.12317, -0.26648, -0.09607, -66.34521, -11.96289, -205.01709
3814, -0.04907, -0.28992, -0.17896, -81.54297, -42.66357, -187.86621
3823, -0.06494, -0.36877, -0.29309, -102.23389, -80.93262, -175.29297
3832, -0.20178, -0.48230, -0.26843, -133.97217, -128.72314, -163.14697
3841, -0.35437, -0.63489, -0.12976, -171.87500, -176.75781, -143.61572
3850, -0.49121, -0.76929, 0.03455, -206.11572, -221.13037, -111.14502
3859, -0.63184, -0.79724, 0.23718, -235.41260, -258.36182, -67.81006
3868, -0.70410, -0.79004, 0.45728, -256.46973, -291.56494, -19.34814
3877, -0.77283, -0.72290, 0.73999, -270.26367, -321.59424, 28.68652
3886, -0.81372, -0.66553, 1.02515, -273.13232, -337.58545, 75.25635
3895, -0.88403, -0.60461, 1.26941, -269.22607, -335.20508, 120.11719
3904, -0.79712, -0.50745, 1.52551, -265.68604, -315.00244, 165.89355
3913, -0.61267, -0.34216, 1.68628, -267.02881, -276.18408, 206.84814
3922, -0.48401, -0.09583, 1.83289, -273.19336, -217.28516, 235.29053
3931, -0.42297, 0.18030, 1.96448, -273.80371, -151.12305, 249.93896
3940, -0.43665, 0.39734, 2.03918, -247.74170, -96.92383, 254.94385
3949, -0.48181, 0.56702, 2.09790, -189.81934, -63.78174, 252.13623
3958, -0.51147, 0.68311, 2.12183, -112.85400, -42.60254, 238.70850
3967, -0.60242, 0.74817, 2.05884, 44.43359, 22.33887, 233.45947
3975, -0.63208, 0.84265, 1.95374, 31.86035, 22.33887, 233.45947
3984, -0.63660, 0.95862, 1.79993, 79.52881, 68.54248, 220.94727
3992, -0.63525, 1.08582, 1.67480, 112.60986, 111.26709, 220.94727
4001, -0.60278, 1.17749, 1.55823, 134.88770, 148.55957, 207.64160
4009, -0.56641, 1.26746, 1.48145, 144.59229, 185.42480, 189.33105
4018, -0.53003, 1.34424, 1.48621, 143.06641, 225.58594, 164.91699
4026, -0.48950, 1.39587, 1.49329, 138.85498, 269.10400, 135.43701
4034, -0.47742, 1.41296, 1.44800, 136.53564, 310.05859, 100.28076
4042, -0.48938, 1.41162, 1.41492, 137.51221, 342.52930, 61.76758
4050, -0.51001, 1.41199, 1.33423, 142.88330, 364.44092, 23.37646
4059, -0.48413, 1.38391, 1.17773, 151.67236, 371.64307, -10.37598
4068, -0.44470, 1.31848, 0.96716, 156.06689, 363.70850, -39.79492
4077, -0.31580, 1.24243, 0.75452, 151.42822, 339.35547, -66.95557
4085, -0.19678, 1.18774, 0.53857, 139.34326, 302.55127, -93.07861
4094, -0.04736, 1.11365, 0.36633, 117.85889, 261.41357, -120.36133
4102, 0.06458, 0.99744, 0.24182, 85.87646, 221.80176, -149.16992
4111, 0.09302, 0.86133, 0.21155, 46.20361, 186.88965, -180.29785
4120, 0.09192, 0.74927, 0.24927, 8.17871, 158.02002, -211.79199
4129, 0.04797, 0.63538, 0.24268, -21.17920, 134.94873, -239.44092
4138, -0.10803, 0.49402, 0.20630, -44.12842, 111.99951, -261.77979
4147, -0.31885, 0.28918, 0.26611, -62.37793, 85.20508, -275.14648
4156, -0.40076, 0.03613, 0.23779, -69.27490, 57.98340, -270.62988
4165, -0.36597, -0.16040, 0.15662, -72.63184, 33.93555, -248.16895
4174, -0.24683, -0.23157, 0.06445, -80.87158, 12.69531, -219.60449
4183, -0.10974, -0.22583, -0.04468, -92.59033, -11.59668, -194.33594
4192, 0.00732, -0.18445, -0.10608, -107.97119, -43.39600, -177.73437
4201, 0.07532, -0.17505, -0.16064, -125.79346, -78.97949, -172.05811
4211, -0.10291, -0.42017, -0.04614, -182.80029, -161.98730, -168.76221
4221, -0.45044, -0.56592, 0.11755, -216.18652, -197.57080, -148.68164
4230, -0.58252, -0.68054, 0.29272, -243.59131, -224.30420, -113.76953
4239, -0.71484, -0.75659, 0.50000, -262.93945, -246.39893, -67.44385
4248, -0.81934, -0.81335, 0.74060, -269.04297, -266.05225, -12.57324
4257, -0.89294, -0.85266, 0.96289, -260.49805, -282.47070, 47.79053
4266, -1.02197, -0.83569, 1.14709, -241.21094, -290.46631, 110.96191
4275, -1.02100, -0.76624, 1.34705, -218.99414, -288.57422, 174.86572
4284, -0.88464, -0.56543, 1.55371, -200.98877, -278.32031, 231.99463
4293, -0.61755, -0.30164, 1.76807, -192.99316, -249.87793, 271.66748
4302, -0.40442, 0.00842, 1.93872, -194.88525, -196.89941, 290.83252
4310, -0.17212, 0.33289, 2.04333, -197.69287, -128.35693, 291.38184
4318, -0.18982, 0.57385, 2.03027, -183.71582, -63.04932, 274.16992
4326, -0.36536, 0.69702, 2.04065, -144.59229, -18.43262, 247.25342
4334, -0.54138, 0.71790, 2.03369, -82.51953, 4.02832, 227.41699
4342, -0.69946, 0.75293, 1.98767, -11.90186, 23.62061, 218.62793
4350, -0.69946, 0.84668, 1.93848, 48.03467, 52.79541, 217.89551
4358, -0.76599, 0.86499, 1.93848, 79.28467, 92.71240, 221.19141
4366, -0.71716, 1.06079, 1.87012, 90.82031, 92.71240, 221.19141
4374, -0.63049, 1.28772, 1.80005, 115.84473, 138.12256, 216.61377
4382, -0.55200, 1.46326, 1.72449, 126.95313, 189.88037, 199.46289
4390, -0.50220, 1.56201, 1.63586, 129.69971, 243.89648, 170.34912
4398, -0.48779, 1.60364, 1.55872, 129.63867, 291.19873, 131.95801
4406, -0.50269, 1.60339, 1.51807, 131.83594, 327.39258, 89.35547
4414, -0.51709, 1.58191, 1.42505, 139.40430, 354.55322, 46.56982
4422, -0.53748, 1.52759, 1.28210, 149.47510, 370.17822, 6.65283
4431, -0.51978, 1.44946, 1.08240, 157.04346, 372.49756, -27.46582
4440, -0.43408, 1.38037, 0.81689, 159.72900, 357.23877, -54.87061
4448, -0.32446, 1.32080, 0.55334, 154.84619, 322.02148, -81.05469
4456, -0.17896, 1.23218, 0.31677, 140.19775, 275.87891, -106.93359
4464, -0.06152, 1.10925, 0.11743, 111.45020, 229.98047, -133.23975
4472, -0.01685, 0.94238, 0.01758, 67.87109, 189.94141, -160.46143
4480, -0.01685, 0.94238, 0.01758, 18.61572, 155.57861, -186.70654
4488, -0.02747, 0.80396, 0.01892, 18.61572, 155.57861, -208.74023
4496, -0.02808, 0.67981, 0.04114, -23.98682, 125.06104, -208.74023
4504, -0.13745, 0.56128, 0.04138, -57.92236, 96.49658, -226.86768
4512, -0.25574, 0.39124, 0.14258, -83.12988, 66.40625, -239.68506
4520, -0.32959, 0.19922, 0.23804, -93.99414, 38.87939, -240.78369
4528, -0.31470, 0.03186, 0.26733, -92.22412, 16.60156, -230.04150
4536, -0.26086, -0.06152, 0.24805, -87.82959, -0.18311, -212.34131
4544, -0.19885, -0.12256, 0.22302, -83.19092, -15.74707, -194.64111
4552, -0.10400, -0.20911, 0.15881, -78.49121, -37.59766, -178.28369
4560, -0.08569, -0.28308, 0.08118, -76.84326, -65.91797, -165.64941
4570, -0.19177, -0.43079, 0.05981, -86.24268, -96.98486, -155.27344
4578, -0.25232, -0.57800, 0.10510, -106.81152, -127.80762, -136.84082
4587, -0.32556, -0.72803, 0.14026, -132.14111, -157.10449, -107.97119
4596, -0.43274, -0.82678, 0.24756, -160.33936, -188.17139, -70.49561
4605, -0.50220, -0.86523, 0.39514, -188.11035, -220.58105, -26.97754
4614, -0.57129, -0.84167, 0.57678, -211.36475, -249.45068, 19.04297
4623, -0.67480, -0.80603, 0.77783, -226.62354, -270.99609, 66.71143
4632, -0.76221, -0.73889, 0.98376, -232.72705, -285.70557, 115.84473
4641, -0.83008, -0.62939, 1.18103, -231.44531, -291.25977, 165.28320
4650, -0.68188, -0.40332, 1.40405, -230.40771, -285.64453, 212.34131
4659, -0.47131, -0.14685, 1.57153, -235.29053, -260.43701, 244.87305
4668, -0.36218, 0.11682, 1.70410, -244.01855, -210.75439, 260.62012
4677, -0.23401, 0.38098, 1.85083, -250.85449, -149.35303, 264.89258
4686, -0.22351, 0.62390, 1.95935, -237.42676, -90.75928, 258.30078
4695, -0.28369, 0.80200, 2.04614, -191.77246, -46.50879, 241.63818
4704, -0.36328, 0.89185, 2.10144, -122.19238, -16.35742, 221.43555
4713, -0.50342, 0.95117, 2.09351, -44.98291, 14.40430, 202.14844
4722, -0.61572, 1.03503, 2.03113, 26.00098, 54.87061, 188.47656
4731, -0.66748, 1.14331, 1.92041, 85.75439, 103.02734, 178.89404
4740, -0.65967, 1.27393, 1.76794, 128.72314, 151.91650, 153.44238
4749, -0.62170, 1.38501, 1.61182, 151.97754, 250.61035, 132.08008
4757, -0.58679, 1.44446, 1.46875, 155.94482, 250.61035, 132.08008
4766, -0.56995, 1.44165, 1.38513, 144.59229, 294.79980, 73.91357
4774, -0.55957, 1.43188, 1.35168, 129.02832, 336.36475, 73.97461
4783, -0.50928, 1.42749, 1.34351, 117.85889, 369.26270, 41.19873
4792, -0.41492, 1.48340, 1.34546, 118.71338, 388.54980, 6.10352
4800, -0.32080, 1.57056, 1.21484, 137.75635, 384.58252, -31.06689
4809, -0.26294, 1.59888, 0.94116, 166.74805, 357.54395, -68.84766
4818, -0.18787, 1.50488, 0.62646, 185.24170, 318.48145, -104.98047
4827, -0.13586, 1.33374, 0.37585, 177.79541, 248.53516, -167.35840
4836, -0.12659, 1.12329, 0.22595, 99.91455, 213.86719, -191.16211
4845, -0.14905, 0.89941, 0.15625, 55.35889, 178.58887, -206.42090
4854, -0.18213, 0.50354, 0.16589, 15.86914, 144.53125, -213.92822
4862, -0.23230, 0.51636, 0.16589, -31.00586, 113.64746, -214.66064
4871, -0.26392, 0.36414, 0.21533, -41.01563, 89.72168, -208.61816
4880, -0.25317, 0.23474, 0.25293, -57.67822, 71.47217, -198.48633
4889, -0.13733, 0.06726, 0.21130, -65.91797, 54.68750, -187.74414
4898, -0.05518, 0.02515, 0.12048, -66.95557, 34.24072, -177.18506
4907, 0.03748, 0.00330, -0.01843, -67.32178, 7.50732, -168.94531
4916, 0.14014, 0.00720, -0.13538, -73.85254, -22.21680, -166.38184
4925, 0.04517, -0.03796, -0.25159, -90.27100, -55.11475, -170.16602
4934, -0.02808, -0.14771, -0.19458, -115.90576, -91.73584, -172.97363
4943, -0.16492, -0.28040, -0.15137, -140.13672, -129.33350, -166.07666
4952, -0.25403, -0.40527, -0.03894, -165.58838, -165.83252, -148.49854
4961, -0.31470, -0.46643, 0.12341, -193.72559, -195.12939, -122.00928
4970, -0.43652, -0.51782, 0.31384, -216.06445, -222.47314, -90.51514
4979, -0.49500, -0.56763, 0.57190, -227.05078, -248.84033, -54.93164
4988, -0.56506, -0.61096, 0.79810, -221.86279, -271.05713, -17.02881
4997, -0.59119, -0.61584, 1.04565, -206.78711, -287.23145, 21.78955
5006, -0.69250, -0.62781, 1.24133, -184.57031, -291.93115, 63.59863
5015, -0.73157, -0.63013, 1.43262, -159.72900, -286.74316, 108.82568
5024, -0.65576, -0.49915, 1.63904, -138.85498, -272.27783, 154.60205
5033, -0.46667, -0.33459, 1.78198, -129.27246, -242.61475, 193.05420
5042, -0.36682, -0.14246, 1.85657, -132.01904, -191.77246, 217.46826
5051, -0.35913, 0.02100, 1.88025, -141.05225, -129.57764, 230.83496
5059, -0.46533, 0.16040, 1.82129, -142.76123, -74.15771, 239.56299
5068, -0.54114, 0.29956, 1.77881, -131.77490, -39.42871, 247.55859
5077, -0.54443, 0.46191, 1.73572, -110.83984, -20.93506, 255.61523
5086, -0.53174, 0.62451, 1.72607, -86.79199, -4.02832, 260.49805
5095, -0.54028, 0.79858, 1.75378, -62.01172, 18.98193, 259.76562
5104, -0.50806, 0.98462, 1.80286, -34.05762, 47.42432, 254.82178
5113, -0.48718, 1.14844, 1.82446, -1.95312, 82.76367, 243.65234
5121, -0.45728, 1.30566, 1.80713, 32.10449, 123.90137, 224.85352
5129, -0.47327, 1.40479, 1.73962, 63.90381, 169.79980, 199.09668
5138, -0.48364, 1.45471, 1.65491, 89.29443, 219.11621, 168.64014
5146, -0.49646, 1.43506, 1.51550, 105.89600, 268.85986, 135.80322
5154, -0.51538, 1.43518, 1.35815, 114.99023, 312.74414, 100.21973
5163, -0.51904, 1.43823, 1.23083, 122.55859, 341.18652, 61.70654
5172, -0.50073, 1.43066, 1.05347, 132.87354, 347.22900, 25.87891
5181, -0.39075, 1.44543, 0.87378, 138.18359, 334.89990, -3.60107
5190, -0.24805, 1.44788, 0.70178, 134.94873, 314.27002, -31.37207
5199, -0.13452, 1.42187, 0.52576, 126.46484, 288.45215, -63.96484
5208, -0.02527, 1.36011, 0.40564, 109.37500, 258.48389, -100.21973
5217, 0.00916, 1.25659, 0.33447, 85.51025, 230.04150, -139.28223
5226, -0.01794, 1.10681, 0.29797, 60.66895, 202.20947, -177.06299
5234, -0.08740, 0.94324, 0.29749, 37.90283, 173.40088, -209.53369
5242, -0.12988, 0.77759, 0.31055, 18.55469, 148.92578, -233.45947
5251, -0.17053, 0.63794, 0.31421, 4.08936, 128.96729, -249.51172
5260, -0.20715, 0.52222, 0.28760, -6.28662, 110.90088, -258.48389
5268, -0.21594, 0.41406, 0.26025, -14.83154, 91.18652, -261.96289
5277, -0.19312, 0.32080, 0.22668, -21.72852, 70.19043, -261.04736
5286, -0.13562, 0.25586, 0.17432, -29.66309, 50.72021, -256.77490
5295, -0.10559, 0.21387, 0.11633, -38.94043, 30.27344, -251.15967
5304, -0.08923, 0.13953, 0.05737, -49.74365, 5.61523, -245.66650
5313, -0.12952, 0.03455, -0.00330, -61.34033, -23.13232, -239.62402
5322, -0.21863, -0.08252, -0.02356, -76.66016, -56.64063, -230.59082
5331, -0.34729, -0.26013, -0.04822, -94.66553, -125.42725, -183.22754
5339, -0.39453, -0.42651, -0.00867, -119.20166, -132.56836, -183.22754
5347, -0.42114, -0.53064, 0.02966, -149.16992, -163.39111, -145.38574
5355, -0.46118, -0.56763, 0.11475, -182.73926, -188.41553, -103.27148
5365, -0.51404, -0.56665, 0.24976, -211.91406, -212.76855, -57.73926
5373, -0.56860, -0.56006, 0.40784, -229.98047, -242.00439, -12.32910
5381, -0.63477, -0.54321, 0.58447, -237.54883, -270.93506, 32.10449
5389, -0.67810, -0.51831, 0.81958, -235.71777, -295.47119, 75.92773
5398, -0.76453, -0.50879, 1.00830, -224.97559, -312.07275, 117.61475
5406, -0.76721, -0.44373, 1.20325, -213.50098, -318.96973, 158.20312
5414, -0.64856, -0.33777, 1.43811, -207.27539, -312.92725, 193.90869
5422, -0.59155, -0.22839, 1.61145, -210.69336, -286.07178, 219.54346
5430, -0.48657, -0.07129, 1.75366, -228.63770, -238.58643, 239.31885
5438, -0.47913, 0.10925, 1.78027, -252.74658, -177.42920, 253.17383
5446, -0.53809, 0.30127, 1.78906, -266.84570, -121.45996, 260.74219
5455, -0.62000, 0.49646, 1.85022, -257.62939, -87.03613, 263.54980
5463, -0.64062, 0.64856, 1.92761, -221.37451, -69.94629, 264.28223
5471, -0.64062, 0.79993, 2.00696, -167.29736, -52.36816, 262.20703
5479, -0.64441, 0.79993, 2.00696, -107.54395, -20.08057, 255.85937
5487, -0.60266, 0.95752, 2.08813, -107.54395, -20.08057, 255.85937
5495, -0.64465, 1.10693, 2.09607, -42.48047, 28.93066, 244.20166
5503, -0.65247, 1.24341, 2.03296, 26.06201, 85.99854, 228.75977
5511, -0.62512, 1.35205, 1.89722, 92.52930, 143.67676, 208.98437
5519, -0.67261, 1.40747, 1.69653, 145.75195, 202.81982, 182.55615
5527, -0.73254, 1.39941, 1.52368, 179.74854, 260.37598, 152.64893
5535, -0.78540, 1.38647, 1.39368, 195.55664, 315.18555, 123.10791
5543, -0.84290, 1.31482, 1.30176, 199.89014, 366.02783, 94.97070
5551, -0.86829, 1.20959, 1.20837, 200.92773, 404.72412, 70.12939
5560, -0.83618, 1.15332, 1.15234, 205.20020, 420.71533, 48.58398
5568, -0.75012, 1.16565, 1.03479, 216.00342, 415.64941, 28.56445
5577, -0.61511, 1.19495, 0.86353, 230.34668, 391.54053, 9.64355
5585, -0.44470, 1.19629, 0.66760, 239.07471, 357.11670, -10.92529
5593, -0.26538, 1.16064, 0.48242, 231.50635, 323.48633, -35.15625
5602, -0.09717, 1.09790, 0.32849, 202.81982, 295.95947, -62.43896
5611, 0.03223, 1.02551, 0.26294, 159.91211, 273.25439, -93.87207
5619, 0.07251, 0.93701, 0.24194, 116.14990, 248.59619, -128.60107
5627, 0.07251, 0.93701, 0.24194, 78.85742, 219.05518, -162.23145
5635, 0.04736, 0.80908, 0.27881, 78.85742, 219.05518, -190.36865
5643, 0.00427, 0.65576, 0.34314, 49.19434, 188.35449, -190.36865
5651, -0.04639, 0.52368, 0.39246, 27.77100, 163.08594, -211.73096
5660, -0.12732, 0.39612, 0.37585, 13.42773, 142.82227, -225.21973
5668, -0.18323, 0.27087, 0.38562, 1.58691, 121.39893, -231.44531
5676, -0.20837, 0.14563, 0.35095, -6.28662, 99.42627, -230.77393
5685, -0.22388, 0.00879, 0.27722, -11.10840, 75.01221, -224.30420
5694, -0.16956, -0.09399, 0.18542, -19.10400, 48.70605, -212.40234
5703, -0.08704, -0.15259, 0.05322, -34.05762, 23.55957, -196.59424
5712, -0.00635, -0.18237, -0.08838, -56.21338, -4.69971, -182.00684
5721, 0.01953, -0.22595, -0.21924, -82.64160, -42.90771, -171.56982
5730, -0.01111, -0.28088, -0.23352, -113.76953, -90.02686, -164.97803
5739, -0.10681, -0.37585, -0.16833, -148.37646, -138.85498, -157.40967
5748, -0.28833, -0.49927, -0.08667, -183.53271, -184.75342, -116.08887
5757, -0.42493, -0.61768, -0.00476, -252.13623, -267.15088, -78.67432
5766, -0.56458, -0.68250, 0.09473, -297.36328, -309.63135, -34.54590
5775, -0.71899, -0.68945, 0.44373, -328.12500, -354.30908, 11.35254
5784, -0.87476, -0.54529, 0.74963, -353.51562, -388.97705, 55.29785
5793, -1.05603, -0.45996, 1.07288, -373.29102, -400.02441, 96.74072
5801, -1.05603, -0.45996, 1.38538, -384.70459, -386.77979, 143.24951
5809, -1.05774, -0.34399, 1.40491, -384.70459, -352.29492, 193.05420
5818, -0.95129, -0.18640, 1.61853, -396.30127, -301.51367, 235.04639
5827, -0.82385, 0.07910, 1.85339, -399.96338, -244.75098, 263.06152
5836, -0.59668, 0.71301, 1.97241, -383.30078, -195.98389, 273.92578
5845, -0.56787, 0.90857, 2.10400, -337.09717, -161.31592, 268.67676
5854, -0.55859, 1.05859, 2.32300, -268.67676, -124.87793, 254.21143
5863, -0.53809, 1.19739, 2.43335, -182.18994, -73.18115, 234.13086
5871, -0.58704, 1.30371, 2.40442, -87.15820, -5.18799, 209.41162
5880, -0.70947, 1.35461, 2.27869, 6.89697, 70.49561, 181.64062
5888, -0.70947, 1.41711, 2.06433, 94.78760, 145.75195, 157.34863
5896, -0.87000, 1.40820, 2.06433, 157.28760, 214.41650, 137.93945
5904, -0.97986, 1.44617, 1.85669, 169.86084, 214.41650, 137.93945
5912, -1.03320, 1.50293, 1.60364, 228.45459, 268.43262, 119.93408
5920, -1.03772, 1.52002, 1.46826, 258.36182, 320.86182, 102.29492
5929, -1.06067, 1.53394, 1.38354, 263.54980, 379.69971, 81.29883
5938, -1.10059, 1.47437, 1.33215, 255.37109, 438.90381, 57.18994
5946, -1.11438, 1.35486, 1.28516, 244.56787, 492.18750, 29.84619
5955, -1.09875, 1.20056, 1.15869, 233.82568, 529.84619, 6.22559
5963, -1.04382, 1.12842, 1.02490, 225.52490, 538.51318, -11.96289
5972, -0.85693, 1.15759, 0.81921, 221.80176, 523.01025, -28.07617
5981, -0.61584, 1.20264, 0.55713, 218.56689, 485.77881, -44.06738
5990, -0.40234, 1.24084, 0.32288, 208.31299, 432.37305, -65.30762
5999, -0.17712, 1.17944, 0.08972, 187.50000, 374.08447, -90.82031
6007, 0.01379, 1.06030, -0.09766, 153.93066, 319.39697, -118.53027
6016, 0.11255, 0.88269, -0.17810, 107.54395, 271.91162, -147.58301
6024, 0.10815, 0.72205, -0.16040, 58.10547, 230.52979, -178.22266
6037, 0.07056, 0.46375, -0.07324, -15.93018, 156.43311, -227.29492
6045, 0.02979, 0.36646, -0.05188, -39.18457, 126.34277, -245.72754
6054, -0.05945, 0.24548, -0.10217, -57.86133, 97.90039, -258.60596
6063, -0.14734, 0.10181, -0.13440, -74.09668, 66.52832, -265.44189
6072, -0.19629, 0.01331, -0.17944, -87.40234, 30.51758, -263.79395
6081, -0.21704, -0.06140, -0.23889, -99.24316, -7.14111, -252.68555
6090, -0.29102, -0.16968, -0.29419, -115.35645, -48.46191, -236.38916
6099, -0.31140, -0.29895, -0.27527, -136.53564, -95.15381, -216.36963
6108, -0.40173, -0.43237, -0.22998, -160.52246, -138.61084, -190.30762
6117, -0.44739, -0.55176, -0.11609, -187.92725, -175.47607, -157.47070
6126, -0.49854, -0.66846, 0.01147, -216.06445, -207.58057, -118.83545
6135, -0.51794, -0.74683, 0.17407, -240.05127, -238.52539, -75.25635
6144, -0.57593, -0.79016, 0.34375, -253.84521, -271.85059, -30.82275
6153, -0.63806, -0.80664, 0.56006, -258.66699, -308.83789, 13.12256
6162, -0.76208, -0.77197, 0.80359, -258.91113, -342.10205, 55.66406
6171, -0.86401, -0.77246, 1.10938, -256.46973, -363.58643, 99.18213
6180, -0.92163, -0.75391, 1.42456, -254.94385, -368.34717, 147.15576
6189, -0.79297, -0.63635, 1.75122, -257.56836, -352.41699, 197.02148
6198, -0.63904, -0.40918, 2.00940, -266.96777, -306.88477, 237.97607
6207, -0.42395, -0.07764, 2.20532, -283.99658, -237.12158, 267.15088
6216, -0.37805, 0.22168, 2.25208, -294.55566, -158.99658, 281.98242
6225, -0.43103, 0.44592, 2.33618, -279.35791, -93.50586, 283.14209
6234, -0.53784, 0.57373, 2.35193, -230.04150, -50.10986, 279.05273
6243, -0.59216, 0.66272, 2.36475, -159.42383, -18.00537, 275.81787
6252, -0.57251, 0.84412, 2.32227, -91.30859, 86.24268, 265.62500
6261, -0.55957, 1.08740, 2.25867, 18.49365, 152.03857, 248.71826
6269, -0.56934, 1.29211, 2.16882, 18.49365, 152.03857, 248.71826
6277, -0.64014, 1.39819, 2.02930, 68.84766, 223.44971, 224.12109
6285, -0.73621, 1.41321, 1.86963, 106.56738, 294.49463, 195.31250
6294, -0.84509, 1.37427, 1.73523, 127.92969, 362.36572, 165.40527
6302, -0.88049, 1.39844, 1.65833, 144.16504, 419.49463, 136.71875
6311, -0.81470, 1.48938, 1.56738, 168.02979, 449.76807, 109.31396
6319, -0.66687, 1.64355, 1.38782, 203.73535, 442.68799, 78.36914
6328, -0.54089, 1.75024, 1.11536, 241.51611, 413.69629, 41.74805
6337, -0.39026, 1.75244, 0.79773, 259.58252, 383.72803, 3.17383
6345, -0.23218, 1.69763, 0.55261, 243.46924, 364.80713, -35.58350
6353, -0.08081, 1.56299, 0.35486, 202.63672, 347.47314, -77.57568
6361, -0.00476, 1.46362, 0.24109, 154.23584, 322.32666, -122.98584
6369, -0.02686, 1.30310, 0.21240, 109.43604, 287.47559, -168.82324
6377, -0.10107, 1.06860, 0.18738, 73.54736, 246.09375, -209.04541
6385, -0.16577, 0.83118, 0.17236, 41.68701, 205.07812, -238.52539
6393, -0.21399, 0.62000, 0.15991, 10.19287, 172.97363, -256.28662
6401, -0.23901, 0.45178, 0.14612, -19.59229, 146.42334, -265.62500
6409, -0.23901, 0.45178, 0.14612, -45.22705, 119.75098, -267.88330
6417, -0.23315, 0.30933, 0.10022, -45.22705, 119.75098, -264.46533
6425, -0.18250, 0.19653, 0.04297, -66.46729, 91.79688, -264.46533
6433, -0.12207, 0.12000, -0.02124, -87.03613, 62.37793, -259.58252
6441, -0.03735, 0.07080, -0.05261, -108.94775, 33.02002, -255.43213
6449, 0.01282, 0.04626, -0.08228, -128.47900, 2.92969, -253.54004
6457, 0.02100, 0.01025, -0.12622, -145.87402, -29.41895, -253.90625
6466, -0.07300, -0.05566, -0.11060, -164.73389, -66.77246, -254.94385
6476, -0.26257, -0.24475, -0.08972, -182.31201, -109.80225, -251.03760
6485, -0.41785, -0.47302, 0.03406, -201.23291, -154.78516, -236.45020
6494, -0.53918, -0.71155, 0.13428, -219.60449, -193.96973, -207.45850
6503, -0.62927, -0.86511, 0.22388, -242.12646, -224.67041, -163.51318
6512, -0.67944, -0.91516, 0.35071, -273.55957, -247.98584, -109.00879
6520, -0.73560, -0.91516, 0.49683, -305.41992, -270.44678, -49.80469
6528, -0.79004, -0.86292, 0.65198, -328.61328, -293.21289, 10.55908
6536, -0.79224, -0.72180, 0.88135, -341.85791, -315.79590, 70.19043
6544, -0.75061, -0.55054, 1.11096, -345.27588, -335.02197, 122.80273
6552, -0.76221, -0.39319, 1.36218, -339.78271, -342.52930, 165.16113
6560, -0.71448, -0.22485, 1.53845, -330.62744, -337.46338, 198.66943
6568, -0.55920, 0.01025, 1.71021, -331.48193, -313.11035, 225.21973
6576, -0.40198, 0.23279, 1.83179, -343.50586, -257.93457, 243.28613
6584, -0.39502, 0.49927, 1.94116, -355.65186, -182.49512, 250.24414
6592, -0.42627, 0.73828, 2.11633, -347.35107, -109.68018, 252.38037
6600, -0.43103, 0.73828, 2.11633, -295.89844, -55.54199, 251.22070
6609, -0.49390, 0.87500, 2.38000, -202.75879, -16.66260, 245.36133
6618, -0.66455, 1.01074, 2.37891, -90.75928, 22.27783, 237.91504
6627, -0.74194, 1.09875, 2.24084, 12.39014, 74.58496, 231.99463
6635, -0.74194, 1.09875, 2.24084, 88.74512, 141.23535, 226.80664
6644, -0.81409, 1.32959, 1.91467, 138.30566, 216.00342, 220.39795
6652, -0.82300, 1.32959, 1.91467, 165.77148, 290.03906, 209.22852
6661, -0.86633, 1.39014, 1.72681, 174.62158, 359.31396, 192.13867
6669, -0.89832, 1.39966, 1.60437, 174.62158, 359.31396, 170.16602
6678, -0.85657, 1.45850, 1.57996, 193.90869, 448.60840, 141.78467
6687, -0.72864, 1.58997, 1.52087, 229.24805, 446.77734, 104.18701
6695, -0.56335, 1.75623, 1.32874, 229.24805, 446.77734, 58.71582
6704, -0.43689, 1.86377, 1.07813, 268.12744, 386.65771, 12.45117
6713, -0.36047, 1.82922, 0.77332, 274.16992, 370.54443, -28.44238
6722, -0.25415, 1.71411, 0.37415, 231.01807, 360.83984, -69.15283
6731, -0.15295, 1.45312, 0.30505, 183.47168, 340.08789, -110.16846
6739, -0.14136, 1.45312, 0.30505, 146.60645, 305.54199, -146.91162
6747, -0.18823, 1.26868, 0.24841, 146.60645, 305.54199, -146.91162
6756, -0.24780, 1.03235, 0.23743, 115.90576, 234.06982, -195.19043
6765, -0.26672, 0.81653, 0.25476, 54.99268, 201.59912, -206.48193
6774, -0.24731, 0.62927, 0.26074, 27.40479, 180.90820, -212.28027
6783, -0.17737, 0.46033, 0.24268, 5.92041, 163.20801, -217.28516
6792, -0.15674, 0.35815, 0.22668, -9.33838, 139.89258, -220.03174
6801, -0.13940, 0.24731, 0.14514, -18.92090, 114.99023, -219.60449
6810, -0.08545, 0.14526, 0.00830, -29.11377, 91.91895, -215.02686
6819, 0.01025, 0.08630, -0.15723, -46.56982, 67.26074, -208.49609
6827, 0.05542, 0.04761, -0.29797, -73.60840, 36.01074, -203.49121
6835, 0.05542, 0.04761, -0.36047, -108.52051, -2.62451, -201.11084
6844, -0.04407, -0.15222, -0.30200, -144.16504, -48.82813, -195.92285
6853, -0.12378, -0.30908, -0.23499, -175.29297, -96.86279, -182.80029
6862, -0.25012, -0.46558, -0.14526, -205.68848, -140.62500, -161.31592
6871, -0.29468, -0.59424, -0.00232, -237.24365, -179.93164, -129.94385
6880, -0.32288, -0.64307, 0.14221, -267.27295, -213.68408, -91.36963
6889, -0.38000, -0.63452, 0.25098, -295.71533, -241.88232, -50.84229
6898, -0.45398, -0.57849, 0.42285, -324.27979, -266.05225, -11.04736
6907, -0.55225, -0.51355, 0.59705, -346.31348, -288.20801, 31.18896
6916, -0.61072, -0.42517, 0.77881, -358.09326, -313.41553, 76.66016
6925, -0.67773, -0.30664, 0.95276, -358.64258, -337.52441, 118.22510
6934, -0.81372, -0.18176, 1.13550, -350.76904, -352.47803, 155.45654
6943, -0.90747, -0.00281, 1.31445, -341.49170, -353.33252, 192.99316
6952, -0.71228, 0.26855, 1.46667, -339.90479, -336.97510, 229.30908
6961, -0.52014, 0.59302, 1.58057, -350.09766, -294.06738, 252.25830
6969, -0.34473, 0.87878, 1.72375, -364.07471, -230.40771, 257.87354
6978, -0.30481, 1.08057, 1.87927, -361.26709, -163.02490, 250.91553
6987, -0.36902, 1.19958, 2.01746, -320.98389, -108.82568, 235.35156
6996, -0.45813, 1.19775, 2.10010, -241.69922, -72.93701, 216.91895
7005, -0.58118, 1.18042, 2.05518, -141.54053, -44.49463, 198.48633
7014, -0.71301, 1.17078, 1.97986, -47.60742, -10.00977, 183.16650
7023, -0.77466, 1.22205, 1.82996, 25.63477, 38.26904, 176.08643
7031, -0.76135, 1.32922, 1.70557, 79.10156, 97.04590, 171.38672
7040, -0.77759, 1.43884, 1.59045, 118.95752, 157.95898, 163.39111
7048, -0.77368, 1.50525, 1.47925, 156.49414, 209.10645, 149.41406
7057, -0.78711, 1.49976, 1.32361, 188.65967, 250.18311, 131.04248
7066, -0.83679, 1.43567, 1.21704, 203.85742, 291.25977, 112.85400
7074, -0.86768, 1.37048, 1.18201, 202.08740, 334.28955, 95.88623
7082, -0.90942, 1.30005, 1.15869, 194.88525, 375.61035, 80.07813
7091, -0.87927, 1.30359, 1.22192, 190.49072, 408.99658, 64.33105
7100, -0.75562, 1.40625, 1.25269, 201.17187, 430.17578, 47.11914
7109, -0.62012, 1.53540, 1.14221, 233.15430, 430.66406, 21.97266
7117, -0.49292, 1.58679, 0.91968, 270.62988, 412.78076, -11.71875
7126, -0.39209, 1.55701, 0.63586, 288.14697, 394.34814, -48.15674
7134, -0.25964, 1.49658, 0.43005, 271.24023, 381.22559, -81.54297
7142, -0.09497, 1.42090, 0.26404, 231.93359, 367.73682, -114.56299
7150, 0.01514, 1.32996, 0.10596, 185.97412, 345.15381, -151.06201
7158, 0.07336, 1.18213, 0.00720, 140.01465, 307.61719, -190.55176
7166, 0.08789, 0.97290, -0.06897, 96.80176, 261.53564, -228.21045
7174, 0.08789, 0.75415, -0.09363, 51.81885, 214.90479, -260.55908
7182, 0.01440, 0.77136, -0.09363, 4.94385, 171.20361, -283.75244
7190, -0.02234, 0.58752, -0.05554, 6.46973, 171.20361, -283.75244
7198, -0.03210, 0.46460, -0.01074, -33.81348, 135.80322, -297.54639
7206, -0.12158, 0.34180, -0.01953, -63.41553, 103.69873, -305.90820
7214, -0.16809, 0.19238, -0.02625, -81.23779, 64.57520, -308.59375
7222, -0.19836, 0.05627, -0.12549, -90.75928, 22.21680, -302.06299
7230, -0.20117, -0.04602, -0.21838, -103.27148, -17.51709, -288.57422
7238, -0.22900, -0.11108, -0.25854, -122.43652, -59.14307, -273.01025
7246, -0.38147, -0.23987, -0.24329, -144.95850, -103.82080, -256.04248
7255, -0.53650, -0.46777, -0.16931, -170.71533, -149.47510, -229.24805
7264, -0.55994, -0.63074, -0.02698, -200.56152, -188.65967, -189.20898
7273, -0.57275, -0.72412, 0.09143, -231.20117, -216.06445, -139.64844
7281, -0.59094, -0.77368, 0.28137, -257.44629, -241.88232, -86.24268
7289, -0.70618, -0.81982, 0.47437, -269.22607, -272.39990, -34.24072
7298, -0.75281, -0.85718, 0.72974, -266.05225, -306.45752, 16.72363
7306, -0.73804, -0.88440, 1.00989, -254.51660, -333.25195, 69.15283
7315, -0.94836, -0.75989, 1.26184, -238.95264, -343.56689, 119.20166
7323, -0.74097, -0.59802, 1.53333, -222.22900, -333.74023, 167.48047
7332, -0.55066, -0.42798, 1.71484, -211.97510, -307.25098, 208.25195
7340, -0.43420, -0.23987, 1.84119, -213.43994, -254.82178, 232.60498
7348, -0.36572, -0.04175, 1.88770, -223.93799, -188.72070, 247.80273
7356, -0.36572, -0.04175, 1.88770, -232.29980, -126.03760, 258.11768
7364, -0.38855, 0.15491, 1.85291, -232.29980, -126.03760, 258.11768
7372, -0.48157, 0.34143, 1.83337, -224.73145, -77.57568, 263.36670
7380, -0.60059, 0.48145, 1.79529, -195.61768, -48.82813, 267.39502
7388, -0.65283, 0.60095, 1.78931, -151.42822, -32.34863, 272.52197
7396, -0.60547, 0.78210, 1.81128, -108.15430, -8.78906, 278.80859
7404, -0.56580, 1.02759, 1.86462, -68.05420, 29.54102, 278.44238
7413, -0.53162, 1.24475, 1.92065, -25.45166, 80.56641, 266.41846
7422, -0.51880, 1.42310, 1.92871, 20.93506, 139.09912, 245.84961
7431, -0.57800, 1.49988, 1.89868, 67.68799, 204.04053, 217.71240
7440, -0.70813, 1.48584, 1.80798, 109.49707, 272.64404, 185.36377
7449, -0.80432, 1.44421, 1.72046, 139.40430, 339.59961, 154.66309
7458, -0.87488, 1.44568, 1.63513, 160.94971, 399.90234, 126.15967
7467, -0.77368, 1.54211, 1.51465, 185.72998, 439.94141, 97.65625
7476, -0.59607, 1.67261, 1.23401, 220.94727, 441.65039, 65.85693
7485, -0.39575, 1.74854, 0.88867, 253.47900, 409.24072, 27.58789
7494, -0.21252, 1.70178, 0.54736, 262.08496, 370.23926, -14.77051
7503, -0.01611, 1.57214, 0.31506, 233.82568, 340.57617, -59.57031
7512, 0.12598, 1.46350, 0.18152, 181.15234, 283.50830, -153.07617
7521, 0.15259, 1.31775, 0.11108, 78.36914, 243.40820, -198.91357
7529, 0.10303, 1.09729, 0.14478, 78.36914, 243.40820, -198.91357
7537, -0.00916, 0.84558, 0.17639, 42.41943, 203.18604, -237.06055
7545, -0.12170, 0.59473, 0.22107, 12.08496, 168.57910, -263.06152
7553, -0.21277, 0.40100, 0.25354, -13.85498, 142.08984, -276.24512
7562, -0.26733, 0.23218, 0.26733, -32.16553, 122.49756, -278.68652
7571, -0.27808, 0.09668, 0.25085, -44.06738, 103.45459, -272.70508
7580, -0.24670, 0.00415, 0.16956, -51.14746, 82.39746, -260.68115
7588, -0.20349, -0.05017, 0.05615, -57.00684, 57.86133, -245.78857
7597, -0.16248, -0.11340, -0.10059, -66.89453, 26.61133, -229.37012
7606, -0.20325, -0.21753, -0.21997, -82.03125, -13.91602, -213.43994
7615, -0.23401, -0.35242, -0.26172, -102.96631, -63.47656, -193.96973
7624, -0.31946, -0.51111, -0.24194, -129.21143, -113.34229, -167.90771
7633, -0.41699, -0.67664, -0.12622, -161.37695, -158.63037, -134.52148
7642, -0.48682, -0.83972, 0.03406, -193.35937, -198.18115, -92.46826
7651, -0.53357, -0.92249, 0.22278, -221.49658, -262.45117, 13.61084
7660, -0.51819, -0.89343, 0.39478, -258.36182, -284.05762, 66.10107
7669, -0.50012, -0.79932, 0.56799, -264.46533, -308.77686, 110.71777
7678, -0.54114, -0.56946, 0.89307, -264.70947, -331.48193, 148.55957
7687, -0.50574, -0.40674, 1.06519, -266.72363, -346.55762, 182.25098
7696, -0.46265, -0.19287, 1.20544, -281.18896, -343.13965, 207.94678
7705, -0.44568, 0.01099, 1.31079, -307.98340, -315.79590, 226.62354
7713, -0.51331, 0.22339, 1.41663, -339.96582, -273.86475, 242.12646
7722, -0.53418, 0.48010, 1.56750, -364.07471, -226.19629, 256.53076
7731, -0.53491, 0.68408, 1.67578, -369.62891, -181.39648, 268.73779
7740, -0.59631, 0.90759, 1.85559, -350.83008, -137.75635, 273.68164
7749, -0.67737, 1.02698, 2.04932, -304.32129, -95.94727, 272.64404
7758, -0.69507, 1.15552, 2.23645, -228.88184, -54.32129, 267.63916
7767, -0.70728, 1.27039, 2.29687, -140.56396, -0.97656, 256.16455
7776, -0.79407, 1.37158, 2.24744, -52.73438, 68.66455, 238.52539
7785, -0.85791, 1.42187, 2.10132, 23.98682, 147.94922, 216.55273
7793, -0.92981, 1.47644, 1.89697, 85.14404, 230.77393, 193.90869
7801, -0.93323, 1.54053, 1.66052, 128.41797, 306.64062, 169.43359
7809, -0.83875, 1.67761, 1.43164, 161.68213, 360.35156, 140.99121
7817, -0.83875, 1.83386, 1.19507, 195.80078, 379.82178, 104.73633
7825, -0.74963, 1.83496, 1.19507, 227.05078, 375.61035, 57.73926
7833, -0.65637, 1.94556, 0.99719, 227.90527, 375.61035, 57.73926
7842, -0.56116, 1.94519, 0.78650, 241.82129, 367.73682, -41.80908
7851, -0.46204, 1.94263, 0.63184, 198.54736, 364.25781, -93.38379
7860, -0.36292, 1.93323, 0.54883, 167.78564, 350.34180, -147.64404
7869, -0.36865, 1.85486, 0.48279, 147.94922, 320.31250, -198.60840
7878, -0.52063, 1.34045, 0.42676, 134.03320, 284.17969, -238.46436
7887, -0.58826, 1.03259, 0.37695, 116.21094, 250.30518, -262.51221
7896, -0.58557, 0.77344, 0.34778, 91.85791, 224.60937, -272.33887
7905, -0.49915, 0.60010, 0.32959, 64.27002, 204.89502, -272.09473
7913, -0.35205, 0.51404, 0.30090, 38.39111, 187.13379, -267.33398
7921, -0.35205, 0.51404, 0.26965, 17.70020, 168.02979, -264.52637
7930, -0.20117, 0.44116, 0.16016, 2.25830, 145.87402, -266.84570
7938, -0.09619, 0.44116, 0.16016, -10.62012, 118.65234, -274.35303
7947, -0.05371, 0.37976, 0.08765, -19.95850, 86.85303, -283.14209
7956, -0.05676, 0.08105, -0.11157, -31.37207, 49.80469, -288.45215
7965, -0.29114, -0.11023, -0.11755, -51.02539, 9.46045, -283.93555
7974, -0.39001, -0.36169, -0.06067, -70.55664, -32.40967, -264.89258
7983, -0.43628, -0.60669, -0.07776, -86.05957, -75.98877, -231.44531
7992, -0.47034, -0.75439, -0.02307, -105.59082, -115.05127, -186.52344
8001, -0.43884, -0.86768, 0.06177, -131.28662, -147.70508, -134.33838
8010, -0.41760, -0.96741, 0.16956, -156.55518, -175.23193, -78.91846
8019, -0.40039, -0.96521, 0.28503, -178.10059, -200.31738, -25.57373
8027, -0.39746, -0.90808, 0.39392, -196.16699, -225.40283, 25.08545
8036, -0.40381, -0.84094, 0.49878, -210.20508, -249.87793, 72.50977
8045, -0.47278, -0.74988, 0.61560, -217.34619, -275.63477, 115.78369
8054, -0.53845, -0.64087, 0.74182, -219.36035, -304.01611, 155.33447
8063, -0.49780, -0.44482, 0.87463, -226.68457, -326.59912, 190.30762
8072, -0.43103, -0.23413, 0.98694, -252.31934, -328.61328, 216.36963
8081, -0.46814, 0.00928, 1.13525, -293.39600, -302.36816, 234.98535
8090, -0.48853, 0.23596, 1.26526, -336.79199, -262.93945, 251.09863
8098, -0.52441, 0.48877, 1.43030, -369.01855, -215.63721, 266.60156
8106, -0.55396, 0.68567, 1.66638, -376.09863, -166.32080, 278.62549
8115, -0.61792, 0.82324, 1.91528, -347.83936, -121.39893, 285.94971
8124, -0.65442, 0.95508, 2.15857, -283.44727, -78.06396, 288.39111
8133, -0.62549, 1.05420, 2.31555, -192.19971, -27.52686, 283.75244
8142, -0.68237, 1.17517, 2.33643, -93.75000, 34.91211, 269.22607
8151, -0.72961, 1.26404, 2.24646, -2.50244, 113.95264, 248.53516
8160, -0.79639, 1.34143, 2.03674, 68.84766, 198.30322, 224.91455
8168, -0.83435, 1.43518, 1.80933, 118.40820, 277.83203, 198.97461
8177, -0.80701, 1.57678, 1.60596, 155.51758, 334.65576, 170.77637
8185, -0.72852, 1.73486, 1.38037, 194.45801, 356.14014, 137.32910
8194, -0.69434, 1.81152, 1.10535, 231.93359, 353.27148, 96.61865
8203, -0.61755, 1.81982, 0.89050, 244.07959, 345.39795, 53.52783
8211, -0.51245, 1.78564, 0.74927, 227.96631, 344.48242, 12.02393
8220, -0.41846, 1.76062, 0.71155, 198.73047, 343.56689, -31.79932
8229, -0.33813, 1.70959, 0.71484, 172.79053, 335.87646, -80.44434
8238, -0.34949, 1.62854, 0.66699, 154.05273, 321.71631, -131.10352
8246, -0.39392, 1.45056, 0.62891, 136.35254, 305.96924, -175.96436
8254, -0.43970, 1.25439, 0.62402, 117.24854, 290.34424, -211.85303
8263, -0.46509, 1.06799, 0.59778, 101.68457, 273.80371, -236.99951
8272, -0.48694, 0.87354, 0.52979, 91.06445, 255.37109, -252.50244
8281, -0.48828, 0.66223, 0.45813, 80.81055, 234.00879, -259.64355
8289, -0.42542, 0.46765, 0.35303, 69.64111, 210.08301, -259.70459
8298, -0.31921, 0.33691, 0.22278, 55.41992, 187.31689, -254.76074
8306, -0.18127, 0.27991, 0.08630, 33.69141, 166.07666, -248.29102
8315, -0.04285, 0.28076, -0.03113, 7.08008, 142.21191, -244.62891
8323, 0.07141, 0.28650, -0.13379, -18.79883, 110.53467, -246.88721
8332, 0.09033, 0.26282, -0.25195, -40.95459, 70.00732, -253.47900
8341, 0.06421, 0.16016, -0.33557, -63.90381, 21.78955, -260.07080
8349, -0.04004, 0.00037, -0.38000, -92.40723, -29.29688, -263.18359
8357, -0.17822, -0.19177, -0.35010, -127.86865, -80.32227, -259.64355
8366, -0.38831, -0.40137, -0.28052, -166.68701, -130.85937, -244.50684
8375, -0.55396, -0.58191, -0.11633, -208.49609, -178.40576, -212.89062
8383, -0.70508, -0.71411, 0.01123, -248.35205, -215.69824, -164.42871
8391, -0.74573, -0.78320, 0.14978, -289.61182, -241.69922, -103.27148
8399, -0.74573, -0.78320, 0.39978, -332.76367, -259.52148, -34.72900
8407, -0.75244, -0.77332, 0.38757, -332.76367, -272.64404, 34.24072
8415, -0.78467, -0.72119, 0.49854, -364.25781, -272.64404, 34.24072
8423, -0.83960, -0.58691, 0.56787, -385.98633, -289.91699, 101.98975
8431, -0.85754, -0.37024, 0.66370, -403.99170, -305.48096, 166.13770
8439, -0.80676, -0.05066, 0.80542, -422.54639, -316.22314, 220.94727
8447, -0.73499, 0.27795, 0.98035, -439.63623, -318.48145, 262.14600
8455, -0.63513, 0.57703, 1.14453, -449.82910, -307.06787, 289.67285
8463, -0.58057, 0.82446, 1.36145, -448.36426, -282.47070, 303.77197
8471, -0.54553, 1.00049, 1.54370, -425.53711, -248.96240, 307.31201
8479, -0.50232, 1.10632, 1.65417, -382.44629, -210.44922, 303.16162
8487, -0.52478, 1.18005, 1.83057, -328.61328, -162.04834, 291.50391
8495, -0.64856, 1.21497, 2.01416, -257.20215, -105.34668, 275.32959
8503, -0.64856, 1.21497, 2.01416, -165.71045, -47.18018, 261.96289
8511, -0.76599, 1.20081, 2.10498, -165.71045, -47.18018, 261.96289
8519, -0.87842, 1.20081, 2.09924, -70.92285, 14.46533, 250.54932
8527, -0.96826, 1.20227, 2.00110, 12.08496, 87.15820, 240.66162
8535, -1.06482, 1.22253, 1.84766, 75.80566, 166.44287, 233.03223
8543, -1.05176, 1.30957, 1.73962, 118.22510, 241.88232, 225.70801
8551, -0.93726, 1.46973, 1.58789, 153.50342, 302.36816, 214.05029
8559, -0.78455, 1.67957, 1.42041, 195.80078, 332.64160, 190.36865
8567, -0.67310, 1.83350, 1.19360, 244.38477, 334.83887, 151.30615
8575, -0.60107, 1.88428, 0.96155, 276.36719, 330.99365, 105.95703
8583, -0.57507, 1.89478, 0.82654, 278.19824, 339.05029, 59.99756
8591, -0.53735, 1.87378, 0.76685, 261.47461, 351.56250, 14.34326
8599, -0.53735, 1.84253, 0.70447, 244.81201, 358.39844, -31.79932
8607, -0.51550, 1.82300, 0.70447, 229.18701, 354.67529, -79.34570
8616, -0.55603, 1.71411, 0.66418, 219.42139, 341.85791, -121.03271
8624, -0.61804, 1.53516, 0.62366, 219.42139, 341.85791, -152.28271
8633, -0.66431, 1.32031, 0.58948, 206.48193, 301.63574, -173.09570
8642, -0.69873, 1.07068, 0.52234, 173.46191, 277.77100, -183.41064
8651, -0.65283, 0.88293, 0.49353, 154.47998, 256.04248, -185.66895
8660, -0.47766, 0.58813, 0.43457, 135.43701, 234.55811, -185.11963
8668, -0.49719, 0.58813, 0.43457, 114.37988, 211.66992, -182.73926
8676, -0.40405, 0.47583, 0.41101, 114.37988, 211.66992, -182.73926
8685, -0.27515, 0.40820, 0.39697, 93.81104, 157.40967, -180.11475
8693, -0.13623, 0.36731, 0.35461, 74.09668, 168.09082, -180.11475
8701, -0.00012, 0.34998, 0.29846, 54.26025, 149.23096, -185.30273
8710, 0.08044, 0.33484, 0.24731, 34.17969, 130.00488, -195.25146
8719, 0.10352, 0.29626, 0.23694, 14.52637, 108.21533, -209.28955
8728, 0.07385, 0.20911, 0.19629, 1.28174, 81.11572, -221.98486
8736, -0.04163, 0.04248, 0.13818, -8.48389, 47.60742, -230.10254
8745, -0.13025, -0.13525, 0.14783, -21.48438, 11.29150, -230.22461
8754, -0.21899, -0.30005, 0.14124, -37.04834, -21.36230, -218.68896
8763, -0.23816, -0.43213, 0.13342, -56.57959, -53.03955, -163.69629
8772, -0.21191, -0.48938, 0.13098, -82.15332, -113.15918, -135.13184
8781, -0.18872, -0.48474, 0.14355, -145.44678, -140.99121, -106.99463
8790, -0.21814, -0.46729, 0.30859, -175.90332, -169.49463, -78.18604
8798, -0.30115, -0.50171, 0.29028, -175.90332, -197.75391, -44.79980
8807, -0.35059, -0.51501, 0.42004, -222.83936, -222.16797, -8.60596
8815, -0.40063, -0.50159, 0.52368, -222.83936, -222.16797, -8.60596
8824, -0.44519, -0.43311, 0.62561, -236.87744, -259.52148, 63.59863
8833, -0.50916, -0.35046, 0.72925, -260.55908, -272.94922, 100.40283
8842, -0.54700, -0.24731, 0.80664, -276.12305, -277.77100, 134.82666
8851, -0.55676, 0.06067, 1.05237, -293.27393, -272.52197, 165.58838
8860, -0.49255, 0.23633, 1.23560, -307.31201, -257.44629, 192.07764
8869, -0.45703, 0.39355, 1.35425, -310.60791, -232.36084, 210.69336
8878, -0.46399, 0.50964, 1.40466, -302.91748, -200.19531, 222.22900
8886, -0.50146, 0.60718, 1.48706, -287.53662, -167.11426, 229.91943
8894, -0.50146, 0.60718, 1.48706, -260.74219, -134.94873, 235.04639
8902, -0.52832, 0.72278, 1.63635, -260.74219, -134.94873, 235.04639
8910, -0.53479, 0.78967, 1.73621, -213.62305, -101.50146, 236.02295
8919, -0.58679, 0.81799, 1.75793, -153.19824, -65.30762, 231.81152
8928, -0.66443, 0.84436, 1.77466, -93.26172, -23.49854, 225.52490
8937, -0.68738, 0.89526, 1.76648, -39.36768, 89.72168, 214.23340
8945, -0.71155, 0.94763, 1.68201, 5.98145, 88.19580, 214.23340
8953, -0.73962, 1.02563, 1.62610, 41.07666, 152.52686, 203.79639
8961, -0.74634, 1.12610, 1.59119, 71.16699, 214.72168, 190.24658
8969, -0.62842, 1.26050, 1.53027, 100.40283, 267.33398, 171.50879
8977, -0.53235, 1.44092, 1.46252, 135.07080, 305.54199, 142.76123
8985, -0.47913, 1.60352, 1.34106, 179.56543, 324.34082, 99.42627
8994, -0.47937, 1.65247, 1.15247, 221.13037, 334.16748, 46.81396
9002, -0.50989, 1.64624, 0.98694, 239.31885, 346.43555, -3.72314
9011, -0.50769, 1.59204, 0.86426, 234.13086, 360.71777, -47.79053
9020, -0.44226, 1.53479, 0.77222, 217.52930, 369.32373, -88.43994
9028, -0.44873, 1.43311, 0.65649, 199.82910, 362.73193, -129.82178
9037, -0.46631, 1.24646, 0.53857, 182.98340, 340.20996, -165.10010
9045, -0.47986, 1.03833, 0.44861, 161.31592, 311.34033, -191.16211
9053, -0.47046, 0.84851, 0.41772, 134.33838, 281.92139, -208.00781
9061, -0.43970, 0.67920, 0.40100, 108.45947, 250.61035, -215.63721
9070, -0.39124, 0.52051, 0.38501, 87.52441, 217.89551, -217.34619
9079, -0.31799, 0.37854, 0.33508, 68.96973, 185.85205, -214.59961
9088, -0.22534, 0.28235, 0.26807, 49.80469, 158.20312, -209.71680
9096, -0.11987, 0.23889, 0.19104, 28.01514, 132.87354, -205.44434
9105, -0.01904, 0.22058, 0.10718, 4.27246, 107.91016, -202.88086
9114, 0.08105, 0.22852, 0.03406, -20.99609, 80.87158, -204.46777
9123, 0.06421, 0.19727, -0.03870, -49.92676, 50.65918, -210.38818
9132, 0.04028, 0.13098, -0.01794, -81.17676, 16.11328, -216.12549
9141, -0.07251, 0.02356, -0.02258, -103.69873, -23.74268, -217.89551
9150, -0.21130, -0.13611, 0.00464, -121.76514, -71.89941, -211.05957
9159, -0.32068, -0.29150, 0.07068, -139.03809, -119.50684, -192.13867
9168, -0.42700, -0.45337, 0.12048, -157.47070, -159.60693, -160.88867
9177, -0.41321, -0.53503, 0.22656, -183.77686, -193.66455, -120.72754
9186, -0.35925, -0.51721, 0.34314, -215.27100, -218.99414, -77.75879
9195, -0.35120, -0.44373, 0.46216, -246.33789, -237.42676, -38.39111
9204, -0.40784, -0.37256, 0.59363, -269.89746, -256.71387, -4.82178
9213, -0.48242, -0.31812, 0.72375, -282.59277, -278.93066, 27.40479
9222, -0.52844, -0.25098, 0.84949, -291.01562, -297.42432, 59.75342
9231, -0.64844, -0.14917, 0.97034, -300.78125, -305.48096, 92.71240
9240, -0.67322, -0.03638, 1.13025, -312.74414, -303.34473, 127.31934
9249, -0.72815, 0.09106, 1.28516, -321.35010, -289.61182, 160.70557
9258, -0.72363, 0.26660, 1.48535, -324.40186, -264.77051, 192.07764
9267, -0.67053, 0.45410, 1.67920, -316.83350, -228.14941, 239.44092
9275, -0.60950, 0.58618, 1.79443, -290.83252, -183.16650, 239.44092
9283, -0.64978, 0.70337, 1.89343, -247.74170, -136.35254, 249.75586
9292, -0.62976, 0.82190, 1.99951, -190.06348, -91.79688, 254.15039
9301, -0.56079, 0.92419, 2.07666, -123.53516, -42.35840, 253.17383
9310, -0.57239, 0.99585, 2.03308, -53.64990, 18.67676, 242.98096
9318, -0.61572, 1.04602, 1.92749, 8.05664, 87.58545, 227.47803
9327, -0.66284, 1.07324, 1.79639, 55.72510, 158.20312, 210.63232
9336, -0.73865, 1.06763, 1.64197, 91.30859, 226.44043, 192.19971
9344, -0.80042, 1.08508, 1.52222, 116.39404, 287.78076, 172.60742
9352, -0.80505, 1.11938, 1.41187, 137.87842, 335.75439, 153.74756
9360, -0.73901, 1.22009, 1.33765, 160.21729, 364.68506, 133.54492
9368, -0.62952, 1.36890, 1.27393, 186.52344, 377.56348, 109.19189
9376, -0.55212, 1.51514, 1.14478, 216.49170, 378.66211, 75.74463
9384, -0.49341, 1.57434, 0.97839, 238.28125, 376.83105, 35.64453
9392, -0.44885, 1.56555, 0.80872, 242.98096, 376.89209, -5.06592
9400, -0.40002, 1.49670, 0.65845, 229.91943, 375.12207, -44.67773
9408, -0.36255, 1.40088, 0.56140, 207.27539, 365.84473, -82.09229
9416, -0.33826, 1.26440, 0.48584, 183.16650, 346.49658, -116.39404
9424, -0.33826, 1.26440, 0.48584, 160.82764, 320.00732, -146.36230
9432, -0.34766, 1.10632, 0.42456, 160.82764, 320.00732, -161.98730
9440, -0.37097, 0.91284, 0.37158, 138.73291, 288.81836, -168.33496
9448, -0.33105, 0.72644, 0.32886, 116.45508, 257.38525, -181.82373
9456, -0.29321, 0.57544, 0.26147, 94.05518, 227.66113, -189.08691
9464, -0.23987, 0.45020, 0.22034, 69.70215, 198.36426, -192.01660
9472, -0.18982, 0.34766, 0.17920, 46.32568, 171.02051, -191.04004
9480, -0.14404, 0.25049, 0.12048, 25.87891, 141.41846, -188.29346
9489, -0.07214, 0.17053, 0.06299, 6.22559, 111.02295, -183.77686
9497, -0.00122, 0.12048, -0.00061, -14.70947, 81.29883, -178.58887
9505, 0.11182, 0.10327, -0.05981, -40.40527, 51.02539, -173.40088
9513, 0.23193, 0.11169, -0.11780, -71.28906, 19.89746, -170.34912
9521, 0.29956, 0.13965, -0.13623, -101.19629, -14.52637, -173.88916
9529, 0.17725, 0.07605, -0.14575, -126.28174, -59.50928, -182.25098
9537, 0.17725, 0.07605, -0.14575, -148.19336, -113.22021, -186.03516
9545, 0.01807, -0.11304, -0.12976, -148.19336, -113.22021, -186.03516
9553, -0.20935, -0.33862, -0.07910, -173.03467, -165.46631, -179.32129
9561, -0.40149, -0.55432, -0.00403, -208.80127, -209.22852, -156.18896
9570, -0.61121, -0.69617, 0.05212, -256.59180, -240.60059, -114.56299
9579, -0.75305, -0.77380, 0.12170, -316.95557, -263.54980, -54.99268
9587, -0.88318, -0.64246, 0.25537, -384.76562, -280.76172, 15.74707
9595, -0.97168, -0.49634, 0.41150, -445.12939, -296.81396, 95.58105
9603, -0.95020, -0.21045, 0.54834, -489.92920, -314.33105, 174.43848
9611, -0.90027, 0.14014, 0.70398, -527.58789, -325.13428, 242.55371
9620, -0.83765, 0.56409, 0.89026, -559.20410, -320.31250, 293.88428
9629, -0.75671, 0.94360, 1.12390, -576.47705, -301.69678, 330.99365
9637, -0.64319, 1.23950, 1.39722, -563.96484, -275.45166, 353.63770
9646, -0.54541, 1.43042, 1.63586, -509.33838, -251.46484, 357.29980
9655, -0.48047, 1.51318, 1.88135, -419.67773, -229.37012, 341.67480
9664, -0.47437, 1.48633, 2.10376, -312.25586, -195.55664, 312.68311
9673, -0.52820, 1.40735, 2.26111, -198.05908, -139.95361, 275.93994
9681, -0.60718, 1.36084, 2.31213, -83.92334, -63.72070, 239.19678
9690, -0.74158, 1.35217, 2.20959, 24.10889, 25.57373, 205.01709
9698, -0.83496, 1.37195, 1.99377, 119.44580, 114.19678, 175.65918
9706, -0.88354, 1.41309, 1.67383, 195.25146, 192.13867, 150.39062
9714, -0.90710, 1.50488, 1.40442, 244.68994, 255.79834, 125.79346
9722, -0.89246, 1.56458, 1.14417, 273.07129, 302.42920, 102.11182
9730, -0.84949, 1.62500, 0.93262, 285.21729, 330.74951, 76.96533
9738, -0.78723, 1.66821, 0.81543, 282.47070, 346.00830, 49.86572
9746, -0.78723, 1.69495, 0.76831, 270.87402, 356.38428, 18.79883
9754, -0.68884, 1.69495, 0.76831, 258.30078, 364.50195, -19.77539
9763, -0.61597, 1.71423, 0.71936, 245.42236, 368.22510, -62.98828
9772, -0.62183, 1.66052, 0.75720, 232.66602, 367.37061, -104.06494
9780, -0.65088, 1.67187, 0.75720, 232.66602, 361.26709, -139.16016
9789, -0.71521, 1.51953, 0.75610, 230.16357, 348.20557, -165.03906
9798, -0.78101, 1.30310, 0.67493, 229.79736, 332.15332, -179.50439
9806, -0.81360, 1.10303, 0.67493, 229.79736, 316.22314, -182.43408
9815, -0.75134, 0.92615, 0.58752, 212.82959, 297.72949, -178.83301
9824, -0.62378, 0.79895, 0.40088, 194.39697, 277.58789, -174.43848
9833, -0.27209, 0.67273, 0.31104, 170.04395, 254.94385, -172.48535
9842, -0.06702, 0.63843, 0.19946, 142.39502, 230.52979, -176.45264
9851, 0.10437, 0.62390, 0.11072, 109.61914, 203.67432, -187.98828
9859, 0.10437, 0.59692, 0.01697, 73.91357, 174.86572, -206.60400
9867, 0.20410, 0.59692, 0.01697, 37.35352, 140.68604, -229.85840
9875, 0.23193, 0.54211, -0.02136, 37.35352, 140.68604, -229.85840
9884, 0.19031, 0.46045, -0.03137, 4.15039, 101.74561, -271.11816
9893, 0.04150, 0.31177, -0.04565, -55.84717, 14.03809, -279.11377
9902, -0.16406, 0.09973, 0.04492, -72.69287, -31.73828, -271.17920
9911, -0.32520, -0.32300, 0.14075, -86.79199, -73.12012, -245.91064
9920, -0.39014, -0.45508, 0.19434, -105.89600, -104.85840, -208.00781
9928, -0.39014, -0.45508, 0.19434, -129.76074, -130.49316, -166.19873
9937, -0.35828, -0.49988, 0.38403, -153.62549, -152.40479, -125.24414
9946, -0.19788, -0.45972, 0.46826, -174.31641, -170.41016, -89.47754
9955, -0.17737, -0.39648, 0.55310, -189.57520, -188.78174, -61.09619
9964, -0.24182, -0.37744, 0.60876, -199.58496, -209.65576, -37.53662
9973, -0.32678, -0.38428, 0.66553, -209.77783, -230.59082, -13.73291
9982, -0.40918, -0.35986, 0.74939, -226.62354, -244.38477, 12.63428
9990, -0.53040, -0.32507, 0.83594, -246.94824, -249.45068, 45.10498
9999, -0.62671, -0.28430, 0.93872, -267.63916, -249.32861, 84.65576
10008, -0.69324, -0.21216, 1.06970, -284.11865, -243.71338, 127.19727
10016, -0.69470, -0.11169, 1.20178, -290.22217, -232.84912, 171.14258
10024, -0.69470, 0.04675, 1.31543, -286.07178, -217.04102, 210.63232
10033, -0.65259, 0.20459, 1.41736, -274.53613, -193.84766, 243.22510
10042, -0.59485, 0.36938, 1.50513, -255.98145, -163.63525, 268.67676
10051, -0.55872, 0.52820, 1.57642, -231.62842, -129.08936, 285.52246
10060, -0.54321, 0.65454, 1.66187, -201.53809, -90.27100, 293.94531
10068, -0.55542, 0.73376, 1.73328, -159.72900, -47.85156, 295.95947
10077, -0.55432, 0.78601, 1.76709, -109.61914, -5.18799, 293.27393
10086, -0.57092, 0.83276, 1.75842, -57.92236, 42.05322, 285.46143
10095, -0.62134, 0.85608, 1.76111, -9.82666, 92.28516, 272.39990
10103, -0.66187, 0.86316, 1.69141, 34.11865, 144.95850, 257.69043
10112, -0.68420, 0.92700, 1.61890, 72.99805, 195.73975, 242.43164
10121, -0.62708, 1.01794, 1.52966, 107.17773, 238.22021, 225.40283
10129, -0.54053, 1.16406, 1.41406, 140.07568, 269.65332, 202.14844
10137, -0.54053, 1.32031, 1.29358, 171.99707, 286.31592, 169.67773
10145, -0.48706, 1.33350, 1.29358, 199.58496, 293.88428, 131.04248
10153, -0.46460, 1.41333, 1.11157, 199.58496, 293.88428, 131.04248
10162, -0.43738, 1.47900, 0.98767, 208.80127, 300.90332, 48.40088
10170, -0.38916, 1.50562, 0.91809, 196.04492, 312.25586, 48.40088
10178, -0.33008, 1.49707, 0.91846, 176.69678, 322.87598, 4.45557
10187, -0.34888, 1.45959, 0.88818, 162.53662, 326.53809, -44.18945
10195, -0.40161, 1.33508, 0.87085, 151.91650, 320.92285, -91.73584
10204, -0.47131, 1.12817, 0.79333, 142.70020, 308.10547, -129.08936
10213, -0.49097, 0.91956, 0.80444, 129.57764, 293.15186, -155.45654
10221, -0.47278, 0.73694, 0.76184, 116.88232, 278.56445, -173.21777
10230, -0.42615, 0.57141, 0.65991, 106.62842, 262.26807, -183.53271
10239, -0.33191, 0.45508, 0.55920, 91.30859, 245.84961, -187.31689
10248, -0.21338, 0.38293, 0.45715, 69.64111, 228.82080, -188.23242
10257, -0.08386, 0.34460, 0.36536, 44.18945, 208.67920, -189.45312
10266, 0.03845, 0.34143, 0.28394, 18.73779, 184.93652, -194.45801
10274, 0.15747, 0.35168, 0.19470, -7.08008, 158.02002, -203.18604
10283, 0.22681, 0.34753, 0.11792, -34.79004, 129.88281, -215.57617
10291, 0.23755, 0.33289, 0.05542, -64.81934, 98.51074, -231.14014
10300, 0.16248, 0.25684, 0.03650, -95.94727, 61.09619, -244.68994
10309, 0.03955, 0.11035, 0.05432, -126.34277, 17.76123, -253.60107
10318, -0.09961, -0.06201, 0.09448, -152.83203, -26.67236, -252.50244
10327, -0.21521, -0.19019, 0.10535, -181.82373, -66.22314, -206.90918
10336, -0.29834, -0.39832, 0.13757, -217.52930, -128.47900, -171.08154
10345, -0.36255, -0.49023, 0.10889, -311.58447, -153.86963, -124.32861
10354, -0.45374, -0.52002, 0.14063, -374.87793, -175.59814, -67.56592
10363, -0.50085, -0.35010, 0.17737, -443.84766, -191.34521, -6.65283
10371, -0.52332, -0.35010, 0.17737, -514.58740, -200.01221, 54.50439
10379, -0.56763, -0.10669, 0.22717, -514.58740, -200.01221, 54.50439
10387, -0.58508, 0.18860, 0.31189, -580.07812, -202.88086, 118.16406
10395, -0.57983, 0.49719, 0.43530, -630.00488, -205.62744, 178.10059
10403, -0.60205, 0.76941, 0.56262, -657.10449, -207.82471, 230.10254
10411, -0.59900, 0.98596, 0.68262, -659.42383, -208.67920, 271.91162
10419, -0.58765, 1.14075, 0.79785, -638.42773, -204.04053, 304.50439
10427, -0.54407, 1.28589, 0.91235, -596.86279, -192.93213, 325.74463
10435, -0.46484, 1.41357, 1.02234, -539.55078, -175.35400, 333.43506
10443, -0.36267, 1.50891, 1.13916, -470.03174, -149.47510, 326.66016
10451, -0.25378, 1.58667, 1.26794, -385.49805, -117.61475, 305.05371
10459, -0.18250, 1.61438, 1.35986, -284.36279, -84.65576, 269.71436
10467, -0.18250, 1.61438, 1.39111, -175.29297, -49.98779, 224.06006
10475, -0.17053, 1.60852, 1.40393, -175.29297, -9.94873, 173.88916
10483, -0.21826, 1.58936, 1.38794, -68.84766, -9.94873, 173.88916
10492, -0.29077, 1.58215, 1.33118, 27.03857, 34.66797, 126.58691
10500, -0.36584, 1.60474, 1.24219, 113.22021, 81.11572, 83.74023
10508, -0.43079, 1.66101, 1.14832, 189.81934, 124.63379, 44.79980
10516, -0.49658, 1.73047, 1.05737, 257.56836, 162.78076, 8.85010
10524, -0.56348, 1.78357, 0.95068, 314.63623, 195.19043, -23.80371
10533, -0.60559, 1.84106, 0.87952, 357.66602, 221.37451, -52.79541
10541, -0.60974, 1.88684, 0.86035, 386.53564, 241.39404, -77.51465
10549, -0.58984, 1.92798, 0.88586, 407.89795, 257.14111, -100.40283
10558, -0.59338, 1.95300, 0.91980, 428.64990, 273.37646, -123.65723
10567, -0.62317, 1.91138, 0.85669, 449.52393, 288.87939, -146.48437
10575, -0.66309, 1.81128, 0.74023, 464.96582, 299.80469, -165.28320
10583, -0.66113, 1.68811, 0.63293, 468.62793, 306.45752, -177.24609
10591, -0.61023, 1.55139, 0.48853, 459.77783, 306.09131, -184.08203
10599, -0.51807, 1.39294, 0.32727, 438.35449, 294.79980, -185.85205
10607, -0.38501, 1.21765, 0.14014, 402.40479, 275.51270, -185.05859
10615, -0.22876, 1.03442, 0.00024, 352.05078, 248.22998, -183.83789
10623, -0.23010, 1.03442, 0.00024, 289.73389, 214.59961, -184.57031
10631, -0.09119, 0.87024, -0.07336, 289.73389, 214.59961, -184.57031
10640, 0.02979, 0.72412, -0.09570, 225.21973, 129.76074, -192.87109
10649, 0.08691, 0.58667, -0.08582, 106.87256, 96.49658, -199.52393
10658, 0.04297, 0.42578, -0.04602, 57.80029, 57.12891, -202.39258
10667, -0.03735, 0.09973, 0.12561, 17.45605, 23.19336, -196.77734
10676, -0.17566, -0.01270, 0.19043, -13.79395, -3.23486, -182.31201
10685, -0.20374, -0.09863, 0.22290, -38.51318, -23.74268, -160.88867
10694, -0.20654, -0.16199, 0.24243, -59.63135, -42.41943, -135.80322
10703, -0.17822, -0.18713, 0.24060, -79.28467, -58.95996, -109.25293
10712, -0.14063, -0.18726, 0.23242, -98.81592, -76.04980, -83.92334
10721, -0.12683, -0.18774, 0.23657, -118.53027, -94.90967, -61.70654
10729, -0.12854, -0.21973, 0.25500, -136.90186, -116.51611, -41.68701
10738, -0.16724, -0.25549, 0.27344, -156.00586, -137.87842, -22.21680
10747, -0.20459, -0.26147, 0.33606, -178.64990, -158.02002, -1.58691
10756, -0.22241, -0.23767, 0.45935, -201.23291, -175.41504, 21.91162
10764, -0.27649, -0.22192, 0.58899, -216.12549, -191.40625, 45.71533
10774, -0.37341, -0.23462, 0.73889, -220.45898, -206.72607, 69.45801
10783, -0.50024, -0.27722, 0.90906, -213.43994, -219.29932, 97.35107
10792, -0.57739, -0.30859, 1.05176, -195.06836, -227.41699, 130.61523
10801, -0.63196, -0.29541, 1.18787, -169.73877, -229.85840, 167.54150
10810, -0.65051, -0.22314, 1.35400, -142.94434, -225.89111, 203.91846
10819, -0.62195, -0.13086, 1.48938, -115.23438, -211.05957, 235.96191
10827, -0.55884, 0.02136, 1.64978, -90.63721, -182.49512, 262.26807
10836, -0.46326, 0.21912, 1.76367, -69.15283, -138.18359, 281.92139
10845, -0.36133, 0.44067, 1.83765, -55.41992, -83.06885, 290.95459
10854, -0.34827, 0.63110, 1.90442, -42.35840, -16.66260, 288.87939
10863, -0.39502, 0.78174, 1.94324, -17.94434, 44.92188, 275.08545
10872, -0.46680, 0.83569, 1.87195, 21.72852, 94.23828, 256.04248
10880, -0.56140, 0.87109, 1.76416, 63.96484, 132.81250, 236.02295
10888, -0.65991, 0.90283, 1.63391, 95.03174, 167.29736, 218.01758
10896, -0.71313, 0.95337, 1.54578, 110.29053, 199.58496, 203.97949
10905, -0.71289, 0.99719, 1.47498, 116.69922, 227.17285, 190.97900
10914, -0.63794, 1.09839, 1.42529, 121.15479, 247.61963, 175.23193
10922, -0.50635, 1.21997, 1.33875, 127.13623, 260.13184, 154.78516
10930, -0.38232, 1.34998, 1.24194, 135.37598, 261.53564, 125.30518
10938, -0.28040, 1.44409, 1.11536, 141.96777, 255.12695, 87.03613
10947, -0.19250, 1.44934, 0.96521, 139.52637, 249.08447, 43.82324
10956, -0.10901, 1.40198, 0.85693, 123.65723, 245.91064, -0.24414
10965, -0.05286, 1.33374, 0.74963, 99.97559, 243.16406, -45.95947
10973, -0.07471, 1.24670, 0.70068, 74.40186, 235.04639, -92.52930
10981, -0.11963, 1.10327, 0.70654, 51.20850, 220.94727, -132.14111
10990, -0.19214, 0.89514, 0.70081, 36.62109, 203.49121, -165.34424
10998, -0.29626, 0.68298, 0.66907, 29.47998, 181.76270, -189.88037
11006, -0.35876, 0.45850, 0.59827, 25.45166, 159.05762, -201.66016
11015, -0.36694, 0.28125, 0.52551, 17.94434, 138.79395, -200.56152
11024, -0.31555, 0.15942, 0.45984, 5.24902, 122.98584, -191.10107
11033, -0.23608, 0.09326, 0.38684, -9.03320, 107.60498, -177.97852
11042, -0.11145, 0.06580, 0.30334, -23.62061, 88.19580, -165.40527
11055, 0.03296, 0.05396, 0.22559, -40.58838, 66.52832, -155.51758
11064, 0.16809, 0.08411, 0.15723, -59.99756, 42.05322, -151.61133
11073, 0.28540, 0.12427, 0.10059, -83.61816, 15.74707, -153.32031
11081, 0.26880, 0.11133, 0.04187, -107.36084, -14.03809, -160.70557
11089, 0.17700, 0.03040, 0.04407, -128.72314, -54.74854, -170.10498
11097, -0.03284, -0.10620, 0.03784, -148.37646, -99.48730, -172.97363
11106, -0.21252, -0.26672, 0.07617, -170.41016, -143.31055, -161.80420
11115, -0.34595, -0.43420, 0.13635, -196.77734, -182.49512, -135.62012
11124, -0.46179, -0.51086, 0.19763, -229.73633, -213.80615, -98.38867
11133, -0.55261, -0.51465, 0.31543, -269.22607, -235.90088, -53.40576
11142, -0.60828, -0.48181, 0.46448, -306.39648, -254.39453, -2.19727
11151, -0.64709, -0.40381, 0.62463, -333.00781, -271.42334, 50.53711
11160, -0.66602, -0.28210, 0.78198, -344.17725, -284.91211, 99.73145
11170, -0.65918, -0.10388, 0.93762, -344.72656, -291.68701, 180.23682
11179, -0.66187, 0.05579, 1.10046, -318.29834, -277.22168, 210.63232
11188, -0.69897, 0.19116, 1.30322, -281.12793, -259.76562, 236.02295
11196, -0.70911, 0.27759, 1.44250, -281.12793, -259.76562, 254.69971
11205, -0.69214, 0.41357, 1.54663, -207.45850, -192.74902, 269.47021
11214, -0.62573, 0.54749, 1.70667, -164.91699, -131.53076, 276.42822
11223, -0.63904, 0.67749, 2.07727, -107.91016, -65.79590, 277.34375
11231, -0.70325, 0.75818, 2.07727, -107.91016, -2.01416, 273.86475
11240, -0.75085, 0.80737, 2.12720, 46.38672, 64.33105, 266.35742
11249, -0.85632, 0.88013, 2.01562, 106.75049, 137.02393, 258.23975
11257, -0.91028, 0.99731, 2.01733, 106.75049, 216.49170, 248.77930
11265, -0.91296, 1.13354, 1.90442, 148.86475, 216.49170, 248.77930
11274, -0.89343, 1.26501, 1.77380, 178.40576, 291.68701, 231.32324
11283, -0.85083, 1.41101, 1.67859, 203.06396, 382.26318, 168.94531
11292, -0.76794, 1.55603, 1.56702, 257.75146, 405.33447, 127.01416
11301, -0.68262, 1.64978, 1.34998, 278.74756, 406.25000, 79.10156
11310, -0.65198, 1.62048, 0.85168, 279.05273, 400.26855, 32.83691
11319, -0.52905, 1.53723, 0.68250, 257.93457, 391.96777, -9.09424
11327, -0.52905, 1.53723, 0.68250, 226.13525, 377.25830, -49.74365
11336, -0.47400, 1.45581, 0.63513, 193.54248, 354.91943, -88.01270
11345, -0.41956, 1.20520, 0.70422, 167.78564, 330.32227, -122.61963
11353, -0.41956, 1.20520, 0.70422, 152.52686, 304.68750, -152.28271
11361, -0.45032, 0.99219, 0.71411, 152.52686, 304.68750, -183.53271
11369, -0.46436, 0.75659, 0.69031, 142.70020, 276.61133, -174.19434
11377, -0.45715, 0.55469, 0.64209, 131.89697, 252.99072, -184.81445
11385, -0.40906, 0.38794, 0.57788, 117.12646, 233.27637, -186.27930
11393, -0.31897, 0.27795, 0.48059, 99.85352, 214.72168, -182.49512
11401, -0.20605, 0.23523, 0.36804, 79.65088, 195.06836, -177.30713
11409, -0.09045, 0.22607, 0.25842, 55.11475, 172.97363, -173.46191
11417, 0.02515, 0.24890, 0.17456, 27.03857, 147.76611, -173.88916
11425, 0.11743, 0.27600, 0.07507, -2.74658, 119.20166, -179.07715
11433, 0.17419, 0.27173, -0.01245, -36.92627, 89.53857, -188.47656
11441, 0.16455, 0.25049, -0.00378, -74.21875, 56.45752, -201.04980
11449, 0.16455, 0.15674, 0.01428, -105.10254, 18.18848, -213.01270
11457, 0.08179, 0.16345, 0.01428, -136.35254, -22.15576, -218.20068
11465, -0.05139, 0.04993, 0.04846, -129.08936, -22.15576, -218.20068
11473, -0.15063, -0.08264, 0.11023, -147.03369, -63.41553, -214.29443
11481, -0.20532, -0.22620, 0.14404, -158.75244, -104.06494, -200.68359
11490, -0.23682, -0.34924, 0.17700, -171.20361, -139.40430, -180.60303
11498, -0.23181, -0.41797, 0.23169, -188.90381, -168.21289, -156.55518
11506, -0.23621, -0.46313, 0.29468, -212.03613, -191.46729, -130.37109
11514, -0.22656, -0.46912, 0.39355, -236.87744, -212.28027, -105.22461
11523, -0.28174, -0.44934, 0.48767, -259.09424, -230.83496, -80.74951
11531, -0.35388, -0.45081, 0.60962, -275.02441, -252.01416, -57.18994
11539, -0.44495, -0.45862, 0.73328, -283.44727, -272.09473, -31.49414
11547, -0.54407, -0.47375, 0.89258, -285.94971, -289.91699, -2.38037
11556, -0.66760, -0.46484, 1.05969, -285.09521, -301.69678, 30.33447
11564, -0.74744, -0.46729, 1.22571, -282.40967, -302.61230, 69.64111
11572, -0.77930, -0.43164, 1.36548, -278.68652, -289.06250, 112.30469
11580, -0.76624, -0.29614, 1.52283, -277.22168, -260.37598, 155.70068
11588, -0.76624, -0.10864, 1.69617, -274.04785, -220.58105, 197.50977
11596, -0.70728, -0.10620, 1.69617, -258.42285, -175.96436, 231.44531
11604, -0.64526, 0.13477, 1.88208, -256.95801, -175.96436, 231.44531
11612, -0.56958, 0.35937, 2.03137, -220.45898, -130.61523, 251.46484
11620, -0.51001, 0.52820, 2.12256, -165.46631, -85.20508, 260.00977
11628, -0.52405, 0.66943, 2.12744, -100.83008, -38.63525, 258.85010
11636, -0.54065, 0.78967, 2.06287, -35.03418, 8.78906, 251.46484
11645, -0.61169, 0.88098, 1.90271, 22.88818, 56.64063, 241.08887
11653, -0.66113, 0.97937, 1.75781, 63.78174, 102.78320, 229.30908
11661, -0.69800, 1.05261, 1.64392, 88.01270, 147.15576, 216.49170
11670, -0.74011, 1.11914, 1.60608, 102.23389, 187.25586, 201.04980
11679, -0.77954, 1.19189, 1.69775, 112.24365, 227.17285, 183.53271
11687, -0.82446, 1.28247, 1.77905, 127.13623, 271.97266, 163.81836
11696, -0.85669, 1.32336, 1.77307, 151.55029, 322.87598, 140.86914
11705, -0.90320, 1.34338, 1.72437, 176.33057, 370.48340, 116.88232
11714, -0.90710, 1.33142, 1.61267, 199.27979, 408.81348, 92.83447
11723, -0.87476, 1.31531, 1.41931, 221.31348, 432.55615, 69.15283
11732, -0.78992, 1.29688, 1.16089, 233.64258, 441.58936, 46.93604
11740, -0.63403, 1.31311, 0.87573, 230.16357, 437.50000, 26.06201
11748, -0.40308, 1.29492, 0.57190, 213.86719, 418.33496, 3.23486
11756, -0.20630, 1.32031, 0.31494, 187.68311, 380.67627, -27.09961
11765, -0.02319, 1.24536, 0.07458, 152.70996, 331.29883, -63.17139
11773, 0.06079, 1.14307, -0.06812, 107.72705, 276.79443, -102.72217
11781, 0.07483, 0.97424, -0.10718, 55.48096, 224.91455, -141.47949
11790, 0.03503, 0.81360, -0.08435, 4.39453, 175.53711, -174.25537
11799, -0.04443, 0.63562, 0.01184, -38.87939, 132.81250, -199.64600
11808, -0.15283, 0.44214, 0.09888, -68.17627, 96.00830, -216.79687
11817, -0.23315, 0.24731, 0.14441, -84.83887, 65.18555, -222.59521
11826, -0.23657, 0.10974, 0.17920, -96.06934, 44.73877, -218.32275
11835, -0.17542, 0.04187, 0.19763, -103.69873, 31.86035, -207.94678
11844, -0.05273, 0.03491, 0.15430, -108.33740, 20.69092, -197.26562
11853, 0.07336, 0.04614, 0.11719, -114.07471, 9.27734, -191.34521
11862, 0.07166, 0.00635, 0.08130, -119.38477, -7.50732, -193.84766
11871, 0.06836, -0.07495, 0.06580, -123.10791, -34.17969, -198.12012
11880, 0.02771, -0.20068, 0.03235, -126.70898, -66.95557, -198.05908
11890, -0.07153, -0.35022, 0.05310, -138.54980, -103.51563, -192.56592
11901, -0.28833, -0.66858, 0.24011, -183.89893, -175.78125, -151.85547
11913, -0.35962, -0.77002, 0.37439, -212.40234, -208.25195, -116.21094
11922, -0.40503, -0.76697, 0.54761, -241.57715, -235.83984, -74.52393
11932, -0.47192, -0.77185, 0.71228, -264.70947, -259.03320, -31.06689
11942, -0.58521, -0.72131, 0.88184, -279.47998, -278.93066, 12.93945
11951, -0.63464, -0.64709, 1.05750, -287.65869, -290.83252, 60.85205
11960, -0.70691, -0.55823, 1.22021, -291.01562, -292.35840, 110.47363
11969, -0.72778, -0.43665, 1.40662, -291.93115, -283.99658, 158.08105
11978, -0.73401, -0.29419, 1.53296, -288.20801, -263.00049, 241.27197
11987, -0.68140, -0.06909, 1.61267, -285.64453, -184.38721, 273.62061
11996, -0.63135, 0.15894, 1.66431, -281.00586, -139.70947, 296.44775
12005, -0.55420, 0.40637, 1.86401, -251.58691, -101.13525, 306.82373
12014, -0.51990, 0.77832, 1.95007, -196.53320, -72.69287, 306.33545
12023, -0.53662, 0.88806, 2.01514, -127.07520, -44.67773, 299.68262
12032, -0.51184, 1.03015, 2.00537, -58.53271, -7.32422, 288.20801
12041, -0.53943, 1.14636, 1.91907, -0.06104, 43.09082, 271.17920
12050, -0.58191, 1.25720, 1.82288, 47.05811, 100.83008, 250.24414
12059, -0.63245, 1.31580, 1.70117, 90.88135, 152.83203, 226.98975
12067, -0.67249, 1.34961, 1.58752, 128.78418, 194.82422, 200.86670
12075, -0.73291, 1.35596, 1.51501, 154.72412, 236.14502, 174.80469
12084, -0.79358, 1.36755, 1.49951, 169.61670, 282.59277, 149.71924
12093, -0.83154, 1.38770, 1.53662, 179.26025, 331.72607, 124.38965
12102, -0.89136, 1.38708, 1.53003, 192.32178, 379.39453, 97.96143
12110, -0.92737, 1.40698, 1.47839, 210.87646, 420.41016, 69.64111
12119, -0.91504, 1.38379, 1.33362, 233.03223, 447.57080, 42.84668
12128, -0.85535, 1.36218, 1.11133, 250.30518, 459.10645, 18.12744
12137, -0.73950, 1.33154, 0.84021, 257.08008, 456.11572, -2.80762
12146, -0.56091, 1.31873, 0.56201, 251.77002, 434.44824, -22.94922
12154, -0.36975, 1.24426, 0.25732, 236.38916, 393.79883, -45.59326
12162, -0.16394, 1.17029, 0.00122, 206.35986, 344.60449, -71.89941
12171, -0.00256, 1.05542, -0.16052, 158.99658, 292.78564, -99.85352
12179, 0.12244, 0.94312, -0.22778, 102.72217, 242.79785, -129.94385
12187, 0.11829, 0.94312, -0.22778, 48.40088, 194.21387, -162.47559
12195, 0.15613, 0.81274, -0.23645, 48.40088, 194.21387, -162.47559
12204, 0.13110, 0.69312, -0.20947, 1.34277, 100.03662, -221.80176
12213, 0.11133, 0.58386, -0.15637, -72.02148, 70.80078, -244.07959
12222, 0.03540, 0.47046, -0.08350, -94.97070, 36.25488, -260.98633
12231, -0.03064, 0.19714, 0.06897, -104.43115, 6.16455, -270.50781
12240, -0.12317, 0.09534, 0.06641, -107.05566, -22.94922, -272.82715
12249, -0.17188, -0.04187, 0.07556, -108.27637, -54.87061, -269.53125
12258, -0.21326, -0.21033, 0.10266, -109.06982, -89.47754, -261.65771
12267, -0.23792, -0.40710, 0.10254, -110.59570, -123.59619, -248.29102
12276, -0.24683, -0.57080, 0.09766, -118.95752, -158.08105, -229.06494
12285, -0.34326, -0.69495, 0.10083, -139.83154, -192.68799, -205.13916
12294, -0.39697, -0.82971, 0.20300, -172.85156, -228.02734, -175.04883
12303, -0.49670, -0.89771, 0.33008, -209.59473, -260.98633, -138.36670
12312, -0.61609, -0.91833, 0.50500, -247.19238, -290.89355, -95.52002
12321, -0.68604, -0.91431, 0.72339, -281.67725, -315.12451, -46.14258
12330, -0.76208, -0.82812, 0.98022, -311.15723, -331.11572, 3.84521
12338, -0.82739, -0.73926, 1.24902, -331.72607, -334.16748, 54.13818
12346, -0.78418, -0.60327, 1.49426, -344.90967, -323.18115, 104.55322
12355, -0.75500, -0.42517, 1.68274, -354.30908, -293.57910, 151.24512
12364, -0.67102, -0.17883, 1.85278, -362.24365, -247.43652, 193.29834
12373, -0.63403, 0.08899, 1.99927, -361.63330, -190.91797, 227.96631
12381, -0.59265, 0.36340, 2.17053, -338.62305, -137.75635, 251.52588
12389, -0.52722, 0.61121, 2.33313, -283.08105, -93.99414, 264.09912
12397, -0.44666, 0.79858, 2.40479, -200.43945, -53.58887, 264.89258
12405, -0.41541, 0.94788, 2.35034, -108.64258, -8.91113, 253.23486
12413, -0.43188, 0.94788, 2.35034, -27.09961, 46.20361, 234.55811
12421, -0.46045, 1.09387, 2.23474, -27.09961, 46.20361, 234.55811
12429, -0.54639, 1.17334, 2.01831, 38.51318, 109.74121, 213.50098
12437, -0.64844, 1.22314, 1.80664, 87.76855, 171.50879, 191.34521
12445, -0.75378, 1.23633, 1.63000, 120.30029, 227.53906, 171.32568
12453, -0.85559, 1.22473, 1.48389, 138.12256, 278.32031, 153.32031
12461, -0.86914, 1.22144, 1.37439, 142.63916, 326.41602, 138.12256
12469, -0.87244, 1.21838, 1.31409, 139.89258, 366.39404, 122.07031
12477, -0.84534, 1.28052, 1.30139, 140.25879, 393.37158, 102.72217
12485, -0.72827, 1.38965, 1.27161, 153.93066, 403.32031, 79.71191
12493, -0.58875, 1.53760, 1.16040, 183.04443, 392.88330, 50.84229
12501, -0.47168, 1.59302, 0.88721, 216.24756, 369.62891, 15.86914
12509, -0.47168, 1.59302, 0.63721, 231.38428, 345.03174, -21.66748
12517, -0.36816, 1.56665, 0.63721, 231.38428, 322.93701, -58.59375
12525, -0.27551, 1.48621, 0.38086, 220.52002, 322.93701, -58.59375
12533, -0.17053, 1.35608, 0.18311, 185.48584, 299.92676, -94.23828
12541, -0.09656, 1.21423, 0.07080, 138.91602, 268.98193, -129.27246
12549, -0.09192, 1.03247, 0.02795, 93.87207, 231.44531, -163.02490
12557, -0.13074, 0.83777, 0.03442, 54.26025, 188.72070, -192.50488
12565, -0.17896, 0.64709, 0.06665, 20.32471, 148.49854, -214.41650
12573, -0.21313, 0.47778, 0.09412, -7.75146, 116.57715, -227.66113
12581, -0.23633, 0.33069, 0.10364, -29.90723, 90.45410, -233.52051
12589, -0.23816, 0.20044, 0.12415, -46.75293, 65.73486, -233.58154
12597, -0.20667, 0.07642, 0.14001, -56.45752, 41.99219, -229.06494
12605, -0.14526, -0.03638, 0.08813, -58.53271, 19.47021, -220.70312
12613, -0.14526, -0.03638, 0.08813, -58.95996, -2.38037, -212.21924
12621, -0.14502, -0.15637, 0.00037, -58.95996, -2.38037, -204.16260
12629, -0.10339, -0.27161, -0.05151, -62.92725, -29.35791, -204.16260
12637, -0.12000, -0.40955, -0.15369, -69.82422, -60.11963, -192.32178
12646, -0.15625, -0.56189, -0.20227, -85.08301, -96.67969, -177.06299
12655, -0.20935, -0.74609, -0.19153, -110.90088, -135.80322, -155.57861
12664, -0.31580, -0.90820, -0.13306, -145.75195, -177.61230, -125.48828
12673, -0.42834, -1.02649, 0.01575, -187.86621, -217.77344, -86.24268
12682, -0.49597, -1.07617, 0.21228, -230.77393, -284.48486, 17.33398
12691, -0.53076, -1.03088, 0.40833, -306.51855, -311.27930, 72.32666
12700, -0.53503, -0.87378, 0.64587, -334.71680, -330.32227, 121.21582
12709, -0.53174, -0.39490, 1.08630, -356.20117, -339.11133, 160.27832
12718, -0.50940, -0.14136, 1.25281, -374.08447, -332.94678, 189.51416
12727, -0.58337, 0.12109, 1.39026, -389.95361, -312.50000, 212.21924
12736, -0.61047, 0.38879, 1.53015, -403.01514, -278.93066, 233.03223
12744, -0.64978, 0.63635, 1.67932, -405.33447, -236.57227, 250.00000
12753, -0.72229, 0.86926, 1.93347, -386.77979, -192.19971, 261.71875
12762, -0.73718, 1.06287, 2.25366, -334.89990, -145.81299, 267.70020
12771, -0.71619, 1.18701, 2.42407, -247.61963, -94.05518, 266.29639
12779, -0.71301, 1.32178, 2.51172, -144.04297, -27.64893, 254.33350
12788, -0.76331, 1.43750, 2.43896, -38.69629, 54.44336, 233.94775
12796, -0.85461, 1.51440, 2.19873, 56.76270, 144.71436, 208.80127
12804, -0.85461, 1.51440, 2.19873, 132.14111, 230.59082, 181.64062
12812, -0.94922, 1.54822, 1.92493, 132.14111, 230.59082, 181.64062
12820, -1.00989, 1.55811, 1.67480, 182.00684, 303.77197, 155.09033
12828, -1.00903, 1.57544, 1.48755, 211.05957, 362.85400, 129.15039
12836, -0.96252, 1.67419, 1.35925, 231.62842, 400.26855, 100.64697
12844, -0.85193, 1.76831, 1.19604, 255.55420, 412.04834, 67.56592
12852, -0.73718, 1.80981, 0.97913, 281.31104, 404.54102, 28.19824
12861, -0.63208, 1.77808, 0.75842, 290.89355, 390.80811, -12.14600
12870, -0.51904, 1.69348, 0.58105, 277.40479, 380.37109, -52.00195
12879, -0.42310, 1.62500, 0.49329, 247.74170, 368.10303, -93.26172
12888, -0.36890, 1.49353, 0.38525, 216.67480, 346.86279, -133.17871
12897, -0.36938, 1.30005, 0.32837, 187.37793, 315.67383, -170.28809
12906, -0.38867, 1.05310, 0.28149, 160.33936, 279.60205, -200.01221
12915, -0.39429, 0.81262, 0.23132, 134.09424, 243.59131, -219.23828
12924, -0.37073, 0.60925, 0.18054, 104.67529, 210.44922, -229.00391
12933, -0.33679, 0.44202, 0.13770, 73.36426, 179.26025, -232.60498
12941, -0.28979, 0.33276, 0.08643, 44.49463, 148.55957, -233.58154
12950, -0.24707, 0.24646, 0.02368, 18.18848, 118.04199, -232.36084
12959, -0.16260, 0.20142, -0.04333, -7.14111, 87.95166, -229.24805
12968, -0.07288, 0.18115, -0.13452, -30.88379, 57.37305, -226.37939
12977, 0.00134, 0.18738, -0.22229, -54.19922, 22.76611, -227.47803
12986, -0.01306, 0.15332, -0.29370, -75.56152, -16.96777, -236.45020
12995, -0.11389, 0.05933, -0.29065, -111.45020, -112.12158, -233.94775
13004, -0.28345, -0.14185, -0.28674, -139.64844, -157.28760, -219.90967
13013, -0.40784, -0.37488, -0.08557, -169.86084, -194.03076, -191.28418
13022, -0.50916, -0.69873, 0.01196, -205.68848, -221.92383, -151.85547
13031, -0.54126, -0.71790, 0.15405, -246.33789, -245.72754, -108.58154
13040, -0.59241, -0.71240, 0.33289, -283.87451, -270.38574, -63.04932
13049, -0.67712, -0.71252, 0.53040, -312.01172, -298.15674, -17.76123
13058, -0.71960, -0.67224, 0.76880, -333.49609, -323.91357, 26.36719
13067, -0.85120, -0.57178, 1.00195, -348.87695, -336.12061, 72.26563
13076, -0.90186, -0.46143, 1.26184, -358.33740, -335.81543, 121.27686
13085, -0.90601, -0.30469, 1.55237, -358.27637, -321.65527, 169.61670
13094, -0.76855, -0.02686, 1.84436, -350.46387, -291.50391, 212.89062
13103, -0.53967, 0.23792, 2.09473, -334.28955, -239.62402, 244.99512
13112, -0.47803, 0.48682, 2.21631, -299.56055, -174.25537, 257.75146
13121, -0.49365, 0.66833, 2.26294, -244.50684, -110.96191, 257.99561
13130, -0.48926, 0.78418, 2.24463, -171.44775, -57.80029, 252.56348
13138, -0.54504, 0.92383, 2.19470, -90.20996, -14.28223, 241.69922
13146, -0.59509, 1.05237, 2.08032, -12.93945, 28.07617, 226.56250
13154, -0.64197, 1.18347, 1.95813, 48.09570, 78.00293, 209.41162
13162, -0.68005, 1.28955, 1.83118, 91.73584, 130.73730, 190.61279
13170, -0.71387, 1.36292, 1.72229, 124.08447, 181.21338, 169.06738
13178, -0.71387, 1.36292, 1.59729, 147.52197, 225.83008, 144.34814
13186, -0.74524, 1.40198, 1.61584, 147.52197, 268.67676, 118.95752
13194, -0.79663, 1.40186, 1.52686, 161.13281, 268.67676, 118.95752
13202, -0.81287, 1.37939, 1.48962, 166.32080, 311.27930, 93.50586
13211, -0.82690, 1.36584, 1.47388, 168.88428, 349.73145, 67.87109
13219, -0.83618, 1.35156, 1.46814, 177.42920, 378.66211, 42.23633
13227, -0.81091, 1.35608, 1.42493, 194.51904, 399.41406, 16.78467
13235, -0.75830, 1.35913, 1.30200, 217.65137, 411.07178, -8.85010
13243, -0.67651, 1.31909, 1.05688, 237.60986, 410.03418, -34.17969
13251, -0.61096, 1.26465, 0.79016, 245.84961, 396.42334, -57.67822
13259, -0.50647, 1.20667, 0.55115, 239.62402, 372.92480, -79.22363
13267, -0.40393, 1.10913, 0.33496, 222.35107, 341.79687, -98.57178
13275, -0.28601, 1.01733, 0.14819, 191.22314, 306.64062, -116.08887
13283, -0.17383, 0.88013, -0.00146, 149.96338, 269.83643, -132.69043
13291, -0.17383, 0.88013, -0.12073, 105.77393, 229.30908, -151.06201
13299, -0.13159, 0.76929, -0.12073, 105.77393, 183.10547, -167.29736
13307, -0.13245, 0.65454, -0.17664, 62.68311, 183.10547, -167.29736
13315, -0.15503, 0.53699, -0.21777, 22.82715, 134.46045, -180.17578
13323, -0.22302, 0.42505, -0.25098, -13.06152, 85.87646, -187.86621
13331, -0.28625, 0.29993, -0.22595, -47.24121, 36.62109, -189.69727
13339, -0.31018, 0.17188, -0.16553, -78.00293, -8.36182, -184.75342
13347, -0.32800, 0.06494, -0.09412, -105.16357, -45.89844, -174.74365
13355, -0.31445, -0.00659, -0.03857, -128.54004, -75.86670, -161.19385
13363, -0.24341, -0.04529, 0.02747, -147.58301, -101.01318, -146.30127
13371, -0.16760, -0.09326, 0.08105, -158.44727, -126.58691, -132.50732
13379, -0.11145, -0.17004, 0.09607, -162.59766, -153.74756, -123.41309
13387, -0.11133, -0.27502, 0.09851, -166.68701, -183.77686, -118.04199
13395, -0.11133, -0.27502, 0.09851, -177.79541, -215.69824, -112.54883
13403, -0.17566, -0.40405, 0.12390, -177.79541, -215.69824, -101.68457
13413, -0.43567, -0.64819, 0.27429, -227.47803, -278.56445, -81.11572
13422, -0.56006, -0.72253, 0.39807, -264.52637, -305.66406, -49.68262
13431, -0.70422, -0.70435, 0.56458, -307.73926, -328.06396, -11.10840
13441, -0.76868, -0.59937, 0.78394, -354.85840, -343.38379, 33.93555
13450, -0.82666, -0.41846, 1.00586, -396.60645, -349.73145, 80.93262
13459, -0.85254, -0.16040, 1.23596, -431.27441, -345.39795, 125.67139
13468, -0.81714, 0.14526, 1.50098, -459.16748, -325.25635, 167.72461
13476, -0.76062, 0.43433, 1.78137, -469.29932, -288.02490, 203.91846
13485, -0.66992, 0.71204, 2.00964, -448.66943, -241.57715, 230.59082
13494, -0.55090, 0.94543, 2.20190, -397.09473, -193.54248, 243.34717
13503, -0.48108, 1.09656, 2.35205, -320.19043, -142.76123, 240.23437
13512, -0.50867, 1.16748, 2.44128, -223.44971, -87.82959, 223.32764
13521, -0.58862, 1.17822, 2.42395, -117.24854, -27.03857, 200.19531
13530, -0.70947, 1.17114, 2.29199, -17.70020, 41.93115, 177.42920
13539, -0.86841, 1.16138, 2.07715, 64.27002, 116.76025, 159.60693
13548, -0.97424, 1.16504, 1.87244, 124.08447, 187.07275, 147.46094
13557, -1.05603, 1.19055, 1.68030, 160.70557, 248.77930, 139.16016
13566, -1.08618, 1.19385, 1.55066, 177.24609, 303.28369, 132.08008
13575, -1.08130, 1.21155, 1.43640, 179.44336, 350.95215, 124.02344
13583, -1.03247, 1.26648, 1.37500, 175.90332, 388.54980, 112.60986
13592, -0.94055, 1.34009, 1.34961, 176.81885, 413.69629, 96.13037
13600, -0.83472, 1.49561, 1.33264, 188.84277, 425.29297, 71.53320
13608, -0.72681, 1.61572, 1.21057, 211.91406, 423.64502, 38.39111
13617, -0.67834, 1.64832, 1.03503, 235.41260, 417.11426, -1.28174
13626, -0.62683, 1.69666, 0.87561, 243.77441, 412.23145, -42.90771
13635, -0.62061, 1.62659, 0.70068, 236.63330, 407.28760, -81.90918
13644, -0.59058, 1.52295, 0.58398, 218.75000, 393.12744, -117.61475
13653, -0.57495, 1.36304, 0.49097, 198.54736, 369.56787, -148.37646
13662, -0.57104, 1.17407, 0.40515, 177.85645, 339.78271, -174.80469
13671, -0.56470, 0.97449, 0.30725, 155.88379, 306.21338, -194.27490
13680, -0.55286, 0.76868, 0.22119, 131.65283, 272.21680, -204.71191
13689, -0.49963, 0.58301, 0.13635, 103.33252, 238.28125, -206.97021
13697, -0.41589, 0.43542, 0.05591, 72.93701, 205.32227, -204.22363
13706, -0.32837, 0.33044, -0.00476, 40.52734, 173.40088, -199.89014
13714, -0.23608, 0.28137, -0.04041, 9.52148, 142.21191, -195.67871
13723, -0.14404, 0.25220, -0.06860, -17.15088, 109.92432, -193.54248
13731, -0.07642, 0.22412, -0.08423, -39.00146, 75.62256, -193.66455
13739, -0.03162, 0.18005, -0.09778, -57.37305, 41.44287, -196.47217
13747, -0.00977, 0.11340, -0.09753, -72.32666, 5.85937, -200.43945
13756, -0.05371, -0.00476, -0.07996, -83.92334, -31.98242, -203.61328
13765, -0.14075, -0.17822, -0.05701, -93.32275, -71.59424, -201.23291
13774, -0.22449, -0.38599, -0.03223, -104.24805, -108.39844, -189.57520
13783, -0.27869, -0.58582, 0.00610, -119.99512, -141.05225, -167.29736
13792, -0.34875, -0.74792, 0.05017, -143.92090, -168.64014, -136.65771
13801, -0.38147, -0.84204, 0.10645, -176.08643, -191.77246, -97.47314
13810, -0.37158, -0.84387, 0.17200, -215.02686, -212.82959, -50.59814
13818, -0.32495, -0.76343, 0.26904, -255.98145, -233.39844, -3.47900
13827, -0.29614, -0.64978, 0.38953, -294.00635, -254.94385, 39.36768
13836, -0.30054, -0.49426, 0.54626, -326.90430, -276.30615, 75.50049
13845, -0.31946, -0.31909, 0.72754, -356.75049, -293.45703, 105.83496
13854, -0.35608, -0.13843, 0.93774, -384.52148, -301.33057, 132.56836
13863, -0.40247, 0.04163, 1.16602, -407.10449, -299.49951, 156.25000
13872, -0.43799, 0.22717, 1.38696, -417.29736, -287.96387, 177.12402
13881, -0.49536, 0.37000, 1.61646, -409.79004, -269.95850, 211.24268
13890, -0.51807, 0.51965, 1.95410, -320.55664, -211.36475, 222.22900
13899, -0.52271, 0.61023, 2.20361, -247.13135, -166.44287, 226.86768
13908, -0.56934, 0.73401, 2.29126, -165.83252, -112.30469, 228.82080
13917, -0.64087, 0.84265, 2.25879, -96.74072, -48.03467, 230.71289
13926, -0.67737, 0.95605, 2.21191, -36.80420, 23.80371, 229.91943
13935, -0.70569, 1.07251, 2.07922, 17.51709, 96.00830, 224.12109
13943, -0.75610, 1.15784, 1.92456, 63.84277, 161.62109, 213.13477
13951, -0.75610, 1.15784, 1.92456, 98.14453, 219.90967, 197.81494
13960, -0.79895, 1.23694, 1.64294, 121.15479, 270.69092, 179.62646
13969, -0.77942, 1.40417, 1.53406, 136.71875, 314.02588, 156.31104
13977, -0.76880, 1.40417, 1.53406, 155.51758, 344.29932, 128.05176
13985, -0.71362, 1.49011, 1.44910, 155.51758, 344.29932, 128.05176
13993, -0.66772, 1.57629, 1.34399, 180.96924, 356.38428, 93.38379
14001, -0.65308, 1.64771, 1.23486, 209.96094, 354.43115, 54.87061
14009, -0.63489, 1.65308, 1.09753, 233.39844, 351.25732, 16.35742
14018, -0.62976, 1.62585, 0.95459, 243.53027, 355.95703, -20.81299
14027, -0.57825, 1.59265, 0.80652, 238.52539, 361.63330, -55.84717
14036, -0.52771, 1.50818, 0.62732, 225.58594, 361.38916, -87.76855
14045, -0.50049, 1.40894, 0.49719, 206.66504, 349.91455, -118.22510
14054, -0.49426, 1.28247, 0.41589, 184.87549, 326.59912, -143.67676
14062, -0.46497, 1.11450, 0.31348, 163.26904, 297.36328, -163.08594
14071, -0.43726, 0.95972, 0.24316, 139.95361, 267.08984, -177.36816
14080, -0.39551, 0.81812, 0.15967, 115.11230, 237.30469, -186.88965
14089, -0.32593, 0.68811, 0.07434, 90.69824, 205.56641, -191.04004
14098, -0.23364, 0.58044, 0.00793, 63.35449, 173.27881, -192.19971
14107, -0.14453, 0.49866, -0.03076, 35.27832, 111.75537, -194.09180
14116, -0.07251, 0.44458, -0.06079, -11.23047, 82.70264, -196.41113
14125, -0.02063, 0.39636, -0.09631, -28.32031, 46.93604, -198.60840
14134, 0.01355, 0.23047, -0.16138, -44.06738, 8.85010, -199.40186
14142, 0.03870, 0.23743, -0.16138, -59.69238, -31.18896, -199.82910
14151, 0.02185, 0.13245, -0.20813, -72.99805, -79.16260, -197.69287
14160, -0.01343, -0.20752, -0.23376, -89.66064, -129.88281, -190.67383
14169, -0.16699, -0.41577, -0.17200, -111.75537, -178.22266, -175.78125
14178, -0.24133, -0.63098, -0.09216, -137.45117, -225.83008, -152.03857
14187, -0.32446, -0.80042, -0.02014, -163.87939, -275.81787, -120.97168
14197, -0.40051, -0.89990, 0.08789, -191.52832, -326.11084, -83.80127
14206, -0.48071, -0.89380, 0.23499, -221.98486, -371.52100, -46.75293
14214, -0.55225, -0.83862, 0.45703, -258.30078, -407.83691, -9.58252
14223, -0.64648, -0.72180, 0.72400, -296.50879, -428.16162, 25.32959
14232, -0.61682, -0.57520, 0.98560, -336.79199, -428.89404, 63.04932
14241, -0.58679, -0.36755, 1.26501, -385.80322, -404.29687, 97.96143
14250, -0.58020, -0.06982, 1.62134, -431.27441, -360.90088, 127.80762
14259, -0.63269, 0.15283, 1.90540, -438.78174, -316.65039, 151.24512
14268, -0.69019, 0.27283, 2.20593, -399.23096, -281.43311, 170.71533
14277, -0.74927, 0.38269, 2.47693, -322.69287, -244.26270, 187.62207
14285, -0.73547, 0.53796, 2.63318, -228.75977, -188.35449, 203.49121
14294, -0.73901, 0.69531, 2.68762, -132.69043, -110.16846, 214.29443
14303, -0.79736, 0.83667, 2.57336, -37.04834, -24.96338, 217.83447
14311, -0.87378, 0.94629, 2.27112, 51.87988, 50.96436, 217.65137
14320, -0.89844, 1.09485, 1.97314, 116.88232, 115.66162, 213.92822
14329, -0.91504, 1.21826, 1.71545, 156.73828, 169.55566, 205.13916
14337, -0.90076, 1.29797, 1.50757, 181.94580, 205.74951, 190.42969
14346, -0.86475, 1.35193, 1.38513, 188.65967, 235.83984, 171.56982
14354, -0.86963, 1.38806, 1.36987, 181.94580, 269.16504, 148.43750
14363, -0.89124, 1.41858, 1.41016, 176.08643, 304.32129, 121.45996
14371, -0.92773, 1.39282, 1.42810, 178.77197, 340.82031, 93.13965
14379, -0.99255, 1.31812, 1.37805, 186.15723, 378.05176, 64.02588
14387, -1.03040, 1.20593, 1.28687, 192.26074, 412.71973, 38.75732
14395, -0.99854, 1.10278, 1.12341, 195.25146, 437.25586, 19.40918
14403, -0.99854, 1.10278, 1.12341, 197.32666, 440.12451, 3.47900
14411, -0.93372, 1.03650, 0.91614, 197.32666, 440.12451, -10.13184
14419, -0.75403, 1.03589, 0.66589, 192.26074, 429.26025, -10.13184
14427, -0.50671, 1.04614, 0.40759, 174.25537, 409.72900, -27.77100
14435, -0.27136, 1.04688, 0.14905, 146.05713, 378.66211, -50.35400
14447, 0.00464, 0.96704, -0.17957, 70.00732, 284.97314, -117.85889
14455, 0.00464, 0.96704, -0.17957, 27.83203, 236.57227, -156.12793
14463, 0.01575, 0.88354, -0.23035, 27.83203, 236.57227, -203.00293
14471, -0.04163, 0.71655, -0.22485, -14.28223, 188.72070, -188.47656
14479, -0.16846, 0.48376, -0.16260, -54.07715, 143.12744, -211.24268
14487, -0.26807, 0.25354, -0.08398, -84.89990, 100.40283, -221.49658
14495, -0.28406, 0.05823, 0.00049, -106.20117, 63.90381, -218.62793
14503, -0.29358, -0.08521, 0.08984, -118.83545, 31.37207, -208.06885
14511, -0.24512, -0.19519, 0.16992, -123.16895, 4.02832, -191.65039
14519, -0.16980, -0.27759, 0.24219, -120.17822, -19.22607, -171.75293
14527, -0.05615, -0.34705, 0.27039, -111.63330, -41.87012, -152.40479
14536, 0.06372, -0.39587, 0.24927, -101.01318, -65.97900, -135.62012
14544, 0.14014, -0.44885, 0.21594, -94.84863, -92.83447, -123.84033
14552, 0.17493, -0.49646, 0.20874, -97.77832, -120.54443, -114.99023
14560, 0.14087, -0.55322, 0.22205, -107.84912, -148.98682, -105.10254
14569, 0.04163, -0.66101, 0.23132, -123.77930, -182.86133, -90.75928
14577, 0.04163, -0.66101, 0.32507, -149.90234, -216.36963, -70.55664
14585, -0.05200, -0.79407, 0.31519, -149.90234, -242.24854, -42.23633
14594, -0.18958, -0.83081, 0.45581, -220.21484, -262.93945, -5.67627
14602, -0.31677, -0.84924, 0.64722, -220.21484, -262.93945, -5.67627
14610, -0.40283, -0.79700, 0.88013, -249.32861, -281.86035, 36.56006
14618, -0.52246, -0.69714, 1.07971, -265.01465, -297.91260, 82.33643
14626, -0.59180, -0.52026, 1.24878, -269.83643, -303.64990, 126.52588
14634, -0.59509, -0.33130, 1.42688, -270.56885, -294.06738, 169.98291
14642, -0.58545, -0.07324, 1.67273, -265.50293, -271.72852, 208.37402
14650, -0.48157, 0.20154, 1.89001, -246.76514, -240.29541, 236.93848
14658, -0.31763, 0.43811, 2.01892, -217.40723, -194.03076, 251.83105
14667, -0.30713, 0.61426, 2.06018, -183.34961, -136.10840, 250.79346
14676, -0.37476, 0.77148, 2.10022, -149.47510, -73.30322, 242.12646
14685, -0.44385, 0.90320, 2.11523, -111.02295, -12.08496, 232.36084
14693, -0.53333, 0.99707, 2.09717, -62.68311, 44.49463, 220.58105
14702, -0.62622, 1.06311, 1.99951, -10.25391, 94.05518, 204.95605
14710, -0.72070, 1.08862, 1.83203, 36.92627, 139.09912, 190.42969
14719, -0.79358, 1.14734, 1.70959, 69.88525, 182.31201, 177.36816
14727, -0.80786, 1.19385, 1.60095, 88.13477, 224.79248, 165.64941
14736, -0.77881, 1.27063, 1.52808, 98.51074, 263.48877, 152.34375
14744, -0.69397, 1.38452, 1.46191, 110.35156, 294.43359, 133.78906
14752, -0.57190, 1.50928, 1.35315, 130.55420, 310.42480, 107.42188
14760, -0.48865, 1.58643, 1.15015, 156.49414, 312.74414, 70.98389
14768, -0.48865, 1.58643, 1.15015, 171.99707, 310.79102, 28.13721
14777, -0.40674, 1.58325, 0.71558, 166.56494, 308.77686, -15.13672
14786, -0.26257, 1.53003, 0.56531, 146.36230, 305.17578, -60.24170
14795, -0.22559, 1.48059, 0.45471, 122.43652, 294.92187, -106.44531
14804, -0.26367, 1.35046, 0.34399, 100.34180, 273.98682, -150.02441
14812, -0.36182, 1.16211, 0.24487, 80.01709, 243.53027, -187.43896
14820, -0.36182, 1.16211, 0.24487, 59.38721, 208.06885, -212.09717
14829, -0.45728, 0.91455, 0.04980, 37.47559, 168.64014, -224.67041
14838, -0.52649, 0.46802, -0.04590, 15.25879, 129.33350, -226.37939
14847, -0.46924, 0.31921, -0.13916, -7.87354, 90.69824, -219.66553
14856, -0.36414, 0.23523, -0.22473, -32.10449, 52.24609, -209.59473
14864, -0.23914, 0.17383, -0.31238, -55.54199, 11.96289, -200.13428
14873, -0.16724, 0.08801, -0.34839, -77.75879, -31.67725, -194.39697
14882, -0.14331, -0.01599, -0.31799, -101.56250, -74.34082, -192.01660
14891, -0.17896, -0.17908, -0.25098, -121.88721, -112.73193, -187.13379
14900, -0.20520, -0.39465, -0.13806, -136.90186, -149.78027, -177.36816
14909, -0.21509, -0.60803, -0.02393, -144.71436, -184.75342, -160.70557
14918, -0.21997, -0.77625, 0.07629, -149.35303, -217.71240, -139.64844
14927, -0.28613, -0.88232, 0.17151, -153.62549, -248.90137, -115.84473
14936, -0.37024, -0.95044, 0.29126, -160.46143, -279.84619, -88.62305
14945, -0.42603, -0.99231, 0.45642, -171.20361, -304.50439, -55.60303
14954, -0.55249, -0.97815, 0.62756, -186.09619, -318.11523, -17.94434
14963, -0.63794, -0.90735, 0.84595, -203.18604, -324.09668, 24.23096
14972, -0.71985, -0.79785, 1.10974, -219.78760, -321.16699, 71.10596
14981, -0.79712, -0.65576, 1.36096, -234.00879, -304.07715, 119.01855
14990, -0.81042, -0.42566, 1.59143, -248.84033, -270.44678, 169.79980
14999, -0.79590, -0.11963, 1.80823, -261.04736, -223.26660, 217.77344
15008, -0.78577, 0.26221, 2.11267, -260.13184, -171.26465, 254.33350
15017, -0.69775, 0.63794, 2.43396, -228.94287, -119.14063, 277.70996
15026, -0.66760, 0.94446, 2.60034, -160.21729, -65.61279, 284.36279
15035, -0.64441, 1.24402, 2.67957, -73.18115, -10.55908, 273.68164
15043, -0.60913, 1.50098, 2.62292, 11.96289, 49.31641, 251.52588
15052, -0.59753, 1.68860, 2.44861, 84.22852, 116.02783, 220.82520
15061, -0.65747, 1.75610, 2.21313, 136.53564, 181.76270, 181.39648
15069, -0.78748, 1.72034, 1.98389, 169.49463, 236.51123, 139.77051
15078, -0.89978, 1.60034, 1.78223, 185.85205, 280.39551, 105.95703
15086, -0.97949, 1.47449, 1.63367, 188.65967, 317.19971, 80.56641
15095, -1.00940, 1.35449, 1.51904, 184.87549, 345.27588, 62.92725
15103, -0.99829, 1.29028, 1.48645, 180.78613, 363.52539, 51.39160
15112, -0.90759, 1.24219, 1.39111, 181.94580, 375.00000, 41.68701
15120, -0.76050, 1.23096, 1.23975, 184.38721, 380.43213, 30.51758
15128, -0.57385, 1.21875, 1.04578, 181.51855, 379.63867, 15.56396
15136, -0.39185, 1.21484, 0.86243, 174.25537, 369.26270, -4.08936
15145, -0.22791, 1.17554, 0.64905, 166.93115, 349.12109, -29.54102
15155, -0.10681, 1.11658, 0.49036, 154.47998, 324.46289, -61.46240
15164, -0.01953, 1.02527, 0.35059, 135.43701, 302.12402, -96.13037
15172, 0.00049, 0.90454, 0.25269, 112.85400, 280.94482, -130.92041
15180, -0.01233, 0.75000, 0.17236, 90.45410, 258.36182, -162.84180
15188, -0.07495, 0.57776, 0.08008, 71.96045, 232.23877, -190.12451
15196, -0.13293, 0.39868, -0.00842, 55.96924, 203.73535, -209.04541
15205, -0.17615, 0.22913, -0.10242, 39.24561, 174.25537, -218.75000
15213, -0.16528, 0.08264, -0.18860, 22.88818, 144.40918, -220.76416
15221, -0.13098, -0.02539, -0.27612, 8.05664, 114.62402, -218.13965
15229, -0.07324, -0.10852, -0.35815, -4.27246, 82.88574, -213.50098
15237, -0.07324, -0.10852, -0.35815, -16.47949, 48.15674, -207.94678
15246, -0.00037, -0.17651, -0.52478, -29.78516, 10.37598, -202.63672
15255, 0.11108, -0.32434, -0.57068, -46.81396, -33.69141, -197.99805
15264, 0.11096, -0.41199, -0.59863, -70.37354, -83.06885, -194.03076
15273, 0.03186, -0.50354, -0.55103, -102.84424, -132.56836, -190.49072
15282, -0.11609, -0.62244, -0.45447, -140.38086, -183.65479, -181.15234
15290, -0.29004, -0.77966, -0.31104, -180.78613, -236.57227, -164.36768
15299, -0.45911, -0.89893, -0.12598, -224.79248, -284.36279, -136.35254
15309, -0.61353, -0.94482, 0.08679, -269.28711, -325.98877, -98.51074
