Time, Ax, Ay, Az, Gx, Gy, Gz
2, -0.10876, -0.17432, 1.37268, -11.10840, 41.50391, -1.40381
10, -0.05200, -0.20618, 1.36279, -12.87842, 63.11035, -5.12695
18, -0.06323, -0.18994, 1.43298, -15.31982, 79.10156, -9.27734
26, -0.09155, -0.16846, 1.47192, -14.03809, 102.96631, -14.22119
34, -0.14514, -0.18591, 1.40076, -8.48389, 126.95313, -17.45605
43, -0.15735, -0.18555, 1.36426, -6.22559, 145.99609, -16.96777
53, -0.17358, -0.16907, 1.37000, -7.26318, 160.27832, -14.16016
62, -0.11768, -0.18359, 1.34338, -8.17871, 177.73437, -8.97217
70, -0.06799, -0.15186, 1.34229, -12.02393, 196.16699, -4.51660
78, 0.00403, -0.09705, 1.37109, -18.00537, 216.61377, -7.14111
86, 0.02698, -0.07813, 1.35693, -21.42334, 243.28613, -14.16016
95, 0.02832, -0.10962, 1.29163, -26.79443, 271.48437, -21.91162
103, 0.02832, -0.10962, 1.24902, -35.82764, 298.76709, -26.67236
111, -0.00049, -0.14600, 1.24902, -35.82764, 324.70703, -24.41406
120, 0.00244, -0.17493, 1.25867, -49.01123, 346.49658, -17.33398
128, 0.02246, -0.16577, 1.26440, -49.01123, 346.49658, -1.70898
136, 0.13098, -0.15674, 1.25659, -42.78564, 364.80713, -7.50732
144, 0.17957, -0.12744, 1.17993, -27.95410, 373.22998, -0.24414
152, 0.18005, -0.06494, 1.08899, -10.86426, 372.13135, 0.85449
160, 0.20227, 0.00977, 1.03516, 7.81250, 373.04687, 2.07520
168, 0.26355, 0.00134, 0.90881, 26.85547, 371.45996, 3.17383
176, 0.30957, -0.05835, 0.72192, 42.72461, 366.27197, 2.92969
184, 0.32874, -0.07642, 0.52991, 53.64990, 355.46875, 4.15039
192, 0.33252, -0.07935, 0.36414, 58.10547, 335.14404, 11.29150
200, 0.40906, -0.09924, 0.21863, 60.05859, 310.85205, 25.57373
209, 0.49207, -0.11646, 0.00146, 57.92236, 282.83691, 39.00146
217, 0.57275, -0.14160, -0.18274, 45.41016, 254.15039, 49.56055
225, 0.65491, -0.13098, -0.26758, 22.82715, 227.96631, 56.82373
234, 0.67041, -0.06323, -0.28088, -0.48828, 203.00293, 59.20410
243, 0.71960, 0.00146, -0.24377, -20.75195, 183.16650, 56.27441
251, 0.76453, 0.03491, -0.24329, -33.75244, 167.66357, 49.56055
260, 0.79846, 0.06897, -0.26794, -37.41455, 149.04785, 39.67285
269, 0.80627, 0.07141, -0.31470, -32.40967, 123.22998, 28.32031
278, 0.79248, 0.06653, -0.36096, -22.94922, 92.71240, 16.54053
287, 0.78601, 0.06787, -0.38647, -12.93945, 63.47656, 6.34766
295, 0.78125, 0.05444, -0.44434, -2.80762, 35.46143, -2.92969
304, 0.78088, 0.02405, -0.54724, 6.10352, 7.26318, -11.23047
313, 0.75867, -0.00879, -0.63831, 10.19287, -22.09473, -17.94434
322, 0.73230, -0.03589, -0.66797, 8.23975, -52.97852, -21.85059
331, 0.69226, -0.05151, -0.70276, 3.60107, -85.63232, -22.39990
340, 0.68701, -0.06555, -0.69031, -3.72314, -118.59131, -19.22607
349, 0.65601, -0.07910, -0.65051, -14.28223, -149.59717, -16.35742
358, 0.60168, -0.04358, -0.58838, -26.18408, -177.49023, -13.79395
367, 0.61865, -0.01538, -0.50293, -36.92627, -202.69775, -8.23975
376, 0.64795, 0.05615, -0.40710, -45.10498, -226.44043, -6.34766
385, 0.62573, 0.13904, -0.29834, -48.09570, -247.43652, -9.52148
394, 0.62854, 0.18555, -0.18066, -45.16602, -266.72363, -14.77051
403, 0.64233, 0.18042, -0.10364, -35.64453, -284.24072, -20.56885
413, 0.61499, 0.15894, -0.06970, -22.15576, -301.14746, -27.70996
423, 0.51050, 0.14453, 0.00806, -10.86426, -317.99316, -33.93555
433, 0.49255, 0.09949, 0.11548, 10.92529, -338.25684, -32.40967
442, 0.48975, -0.01904, 0.22949, 19.28711, -342.83447, -27.52686
452, 0.30273, -0.02454, 0.27832, 25.45166, -347.90039, -22.94922
461, 0.30383, -0.05530, 0.41602, 29.78516, -350.15869, -15.44189
469, 0.26208, -0.06970, 0.50574, 35.88867, -345.45898, -8.42285
478, 0.19116, -0.06946, 0.52930, 42.29736, -333.31299, -4.88281
486, 0.17285, -0.12817, 0.57910, 43.27393, -317.68799, -0.73242
495, 0.11121, -0.10950, 0.66125, 39.91699, -302.91748, 3.17383
504, 0.03723, -0.08289, 0.79871, 34.85107, -286.62109, 5.12695
513, -0.02148, -0.08496, 0.88025, 33.26416, -270.75195, 6.46973
521, -0.07178, -0.10706, 0.94263, 33.81348, -257.87354, 7.93457
529, -0.16553, -0.11572, 0.98303, 36.56006, -248.47412, 8.85010
537, -0.16162, -0.11572, 0.98303, 35.88867, -239.80713, 12.69531
546, -0.22302, -0.21008, 1.02417, 29.66309, -226.13525, 17.63916
555, -0.25171, -0.23669, 1.11255, 21.30127, -207.58057, 22.64404
564, -0.23865, -0.20764, 1.18469, 9.33838, -190.67383, 24.41406
572, -0.23865, -0.20764, 1.18469, -0.61035, -175.72021, 21.54541
581, -0.21741, -0.13428, 1.31873, -5.92041, -158.56934, 13.67187
590, -0.20996, -0.14502, 1.35339, -13.30566, -137.57324, 3.90625
599, -0.23669, -0.13708, 1.46313, -22.15576, -119.07959, -6.04248
608, -0.29028, -0.15186, 1.57251, -28.86963, -99.67041, -14.83154
617, -0.31787, -0.17700, 1.64880, -31.67725, -79.10156, -20.44678
626, -0.35071, -0.17139, 1.74573, -33.08105, -58.77686, -24.29199
635, -0.39319, -0.17175, 1.82861, -33.08105, -38.02490, -28.19824
645, -0.42664, -0.18091, 1.86182, -30.57861, -14.95361, -29.54102
654, -0.44849, -0.20691, 1.93115, -29.66309, 8.54492, -29.66309
663, -0.46802, -0.24451, 2.03394, -28.19824, 36.31592, -28.62549
672, -0.46997, -0.26514, 2.09766, -22.46094, 70.73975, -25.26855
680, -0.46667, -0.23145, 2.09277, -13.79395, 111.75537, -22.46094
689, -0.47778, -0.22156, 1.97644, -5.73730, 153.74756, -22.03369
698, -0.47144, -0.18420, 1.83008, -2.86865, 189.88037, -21.60645
707, -0.35071, -0.15784, 1.78333, -7.20215, 222.59521, -22.27783
716, -0.26062, -0.17065, 1.72668, -11.77979, 252.01416, -29.05273
725, -0.27417, -0.16162, 1.63623, -14.95361, 279.47998, -37.71973
734, -0.22888, -0.12939, 1.58984, -17.57813, 304.74854, -39.91699
743, -0.10413, -0.09680, 1.54932, -18.31055, 328.12500, -39.85596
752, -0.04236, -0.13928, 1.41357, -18.24951, 350.28076, -44.67773
761, -0.00793, -0.06592, 1.35608, -22.58301, 368.46924, -50.17090
770, 0.07141, -0.00134, 1.32031, -24.78027, 379.76074, -55.96924
779, 0.14734, 0.02405, 1.29907, -19.47021, 385.80322, -63.53760
787, 0.19641, 0.07153, 1.23291, -9.70459, 389.77051, -73.24219
796, 0.23474, 0.05823, 1.13342, 2.13623, 389.16016, -83.00781
804, 0.23401, 0.02795, 1.07043, 13.42773, 382.69043, -88.86719
813, 0.25110, -0.02710, 0.93384, 27.34375, 367.85889, -88.98926
822, 0.24353, -0.16541, 0.66675, 43.57910, 342.83447, -79.16260
831, 0.27368, -0.22144, 0.48206, 52.61230, 307.98340, -57.73926
840, 0.39453, -0.24695, 0.39490, 51.45264, 272.58301, -32.10449
849, 0.48328, -0.24609, 0.31226, 48.15674, 244.50684, -11.65771
858, 0.51367, -0.20496, 0.27344, 43.76221, 223.99902, 9.39941
867, 0.55347, -0.17993, 0.24182, 37.53662, 194.15283, 16.29639
876, 0.58008, -0.19641, 0.15674, 23.80371, 182.43408, 20.75195
885, 0.58276, -0.14819, 0.16443, 13.24463, 174.80469, 23.86475
894, 0.64087, -0.15869, 0.09387, 7.62939, 169.37256, 26.00098
902, 0.64087, -0.15869, 0.09387, 4.82178, 159.79004, 28.80859
910, 0.63794, -0.16492, 0.00085, 4.82178, 159.79004, 28.80859
918, 0.66907, -0.15259, -0.02771, 2.99072, 146.48437, 34.91211
926, 0.71362, -0.12512, -0.04749, 4.76074, 130.61523, 40.64941
934, 0.73328, -0.11145, -0.12207, 12.81738, 110.83984, 43.82324
942, 0.72278, -0.09583, -0.18335, 22.52197, 87.70752, 45.34912
950, 0.74072, -0.08472, -0.20215, 30.63965, 63.84277, 47.48535
958, 0.75220, -0.08691, -0.25549, 38.57422, 41.44287, 47.79053
966, 0.74048, -0.06531, -0.31836, 44.18945, 20.44678, 45.65430
974, 0.77405, -0.02649, -0.33606, 44.37256, 1.09863, 42.96875
982, 0.79700, -0.01147, -0.36121, 41.56494, -15.19775, 37.59766
990, 0.80591, -0.00464, -0.39868, 35.09521, -28.86963, 28.74756
998, 0.80591, -0.00464, -0.43457, 27.16064, -41.25977, 20.50781
1006, 0.79712, -0.00330, -0.43457, 27.16064, -59.38721, 14.77051
1014, 0.77856, -0.01379, -0.45886, 20.38574, -59.38721, 14.77051
1022, 0.76135, -0.04272, -0.45776, 16.29639, -84.35059, 12.93945
1030, 0.75000, -0.08069, -0.43286, 16.54053, -110.65674, 14.34326
1038, 0.70251, -0.12256, -0.43591, 22.82715, -140.62500, 18.73779
1046, 0.63330, -0.17224, -0.44055, 31.31104, -175.78125, 27.34375
1054, 0.54187, -0.21484, -0.42114, 38.14697, -212.40234, 41.74805
1062, 0.46399, -0.20020, -0.36890, 40.34424, -246.03271, 60.85205
1070, 0.44702, -0.09717, -0.27795, 33.87451, -273.31543, 80.13916
1078, 0.51599, 0.00159, -0.20300, 17.51709, -288.63525, 91.18652
1086, 0.55396, 0.13501, -0.09229, -5.55420, -288.51318, 89.17236
1094, 0.63623, 0.21484, 0.04895, -29.60205, -279.05273, 78.61328
1102, 0.63623, 0.21484, 0.04895, -45.95947, -268.00537, 61.64551
1110, 0.67859, 0.27454, 0.15881, -45.95947, -268.00537, 39.48975
1118, 0.67566, 0.29480, 0.26294, -55.05371, -260.37598, 39.48975
1126, 0.61060, 0.26758, 0.36902, -55.29785, -257.56836, 18.24951
1134, 0.48901, 0.21570, 0.46423, -45.65430, -259.39941, 3.54004
1142, 0.38635, 0.10559, 0.52869, -28.13721, -266.11328, 0.79346
1150, 0.26355, 0.02783, 0.60120, -7.99561, -273.86475, 9.21631
1158, 0.19617, -0.03967, 0.65271, 11.77979, -279.41895, 26.48926
1166, 0.20496, -0.05823, 0.71948, 28.38135, -280.27344, 47.66846
1174, 0.21692, -0.01489, 0.78308, 40.10010, -276.36719, 63.78174
1182, 0.26221, 0.04834, 0.85999, 49.37744, -267.82227, 70.61768
1190, 0.31140, 0.09998, 0.94507, 57.06787, -257.26318, 67.07764
1198, 0.31140, 0.13416, 1.00366, 66.16211, -243.40820, 53.83301
1207, 0.34631, 0.13721, 0.96008, 74.52393, -224.42627, 33.32520
1217, 0.25256, 0.09888, 0.90723, 77.63672, -208.61816, 10.13184
1225, 0.14758, 0.01843, 0.87683, 72.26563, -196.77734, -7.50732
1234, 0.04138, -0.05115, 0.84521, 58.77686, -184.99756, -16.41846
1243, -0.02051, -0.10779, 0.91785, 38.94043, -174.37744, -18.61572
1252, -0.06274, -0.14441, 1.02844, 20.62988, -164.36768, -14.95361
1261, -0.11426, -0.13965, 1.11230, 9.76562, -151.42822, -8.60596
1269, -0.14038, -0.13525, 1.10962, 6.34766, -140.56396, 0.06104
1278, -0.11951, -0.11267, 1.11609, 5.67627, -134.94873, 9.15527
1287, -0.09875, -0.07556, 1.20227, 4.88281, -132.32422, 12.08496
1296, -0.08752, -0.05640, 1.28088, 6.34766, -126.34277, 8.85010
1304, -0.10376, -0.03833, 1.29602, 10.43701, -116.76025, 1.77002
1313, -0.12720, -0.04456, 1.31799, 12.02393, -106.75049, -6.65283
1322, -0.17249, -0.06763, 1.35779, 10.25391, -95.33691, -15.50293
1331, -0.22485, -0.08899, 1.38489, 6.53076, -81.42090, -21.54541
1339, -0.26892, -0.10791, 1.41833, 2.31934, -68.05420, -23.55957
1348, -0.30688, -0.11914, 1.47888, -0.91553, -57.18994, -22.39990
1357, -0.32922, -0.13611, 1.52954, -1.95312, -46.81396, -19.65332
1366, -0.34412, -0.13806, 1.57117, -2.56348, -33.81348, -16.90674
1376, -0.35205, -0.14087, 1.59338, -2.62451, -19.04297, -14.70947
1385, -0.34143, -0.14343, 1.61401, -2.62451, -4.57764, -13.79395
1398, -0.33582, -0.13904, 1.66870, 0.54932, 27.22168, -17.02881
1408, -0.34351, -0.15369, 1.69031, 5.79834, 44.12842, -19.10400
1417, -0.36267, -0.15967, 1.70288, 12.51221, 63.59863, -20.87402
1426, -0.36780, -0.15430, 1.69031, 19.83643, 82.82471, -20.69092
1435, -0.35608, -0.16821, 1.63379, 25.87891, 102.84424, -20.01953
1444, -0.35193, -0.16272, 1.58777, 27.77100, 123.84033, -19.83643
1452, -0.31641, -0.15271, 1.55396, 25.02441, 147.76611, -19.77539
1461, -0.28271, -0.16077, 1.49512, 17.82227, 175.04883, -19.89746
1469, -0.24536, -0.14380, 1.48901, 5.67627, 204.58984, -21.54541
1478, -0.19702, -0.12537, 1.48047, -7.62939, 237.30469, -24.47510
1486, -0.18372, -0.10034, 1.44250, -19.53125, 270.14160, -26.79443
1495, -0.13232, -0.06030, 1.41882, -29.66309, 298.46191, -27.77100
1504, -0.07288, -0.02441, 1.38647, -32.89795, 319.09180, -28.13721
1513, -0.00024, -0.02051, 1.32886, -29.60205, 333.55713, -29.47998
1522, 0.03162, -0.03760, 1.22278, -21.42334, 339.53857, -31.43311
1531, 0.07031, -0.02332, 1.15283, -9.70459, 334.22852, -30.27344
1540, 0.16919, 0.01648, 1.10852, 4.39453, 321.28906, -26.91650
1548, 0.21802, 0.02075, 1.04565, 20.93506, 308.59375, -26.42822
1557, 0.26099, -0.00244, 0.99072, 38.51318, 300.35400, -26.00098
1566, 0.26831, -0.04517, 0.84814, 57.06787, 290.28320, -23.62061
1574, 0.30273, -0.07373, 0.68005, 71.22803, 273.19336, -16.90674
1582, 0.35327, -0.07703, 0.55359, 76.72119, 253.05176, -6.83594
1591, 0.41785, -0.09790, 0.43188, 73.79150, 237.30469, 2.07520
1599, 0.46814, -0.11157, 0.32690, 63.35449, 225.70801, 8.78906
1608, 0.49805, -0.10352, 0.26282, 49.56055, 214.84375, 15.31982
1616, 0.53113, -0.09009, 0.23157, 35.09521, 202.75879, 21.11816
1624, 0.57092, -0.08606, 0.18481, 24.41406, 189.88037, 26.73340
1633, 0.60669, -0.09302, 0.12122, 17.63916, 173.88916, 31.61621
1642, 0.61536, -0.05469, 0.13208, 13.42773, 156.37207, 35.82764
1650, 0.65894, -0.01868, 0.18127, 11.90186, 143.12744, 37.78076
1659, 0.67004, -0.01636, 0.13159, 16.78467, 134.64355, 36.25488
1668, 0.67236, -0.01721, 0.04712, 20.93506, 124.69482, 33.32520
1677, 0.69702, -0.02722, -0.01135, 20.01953, 113.89160, 31.37207
1685, 0.73535, -0.03479, -0.05286, 15.25879, 103.69873, 28.62549
1693, 0.73535, -0.03479, -0.05286, 10.37598, 91.85791, 24.23096
1701, 0.74683, -0.02295, -0.07813, 10.37598, 76.23291, 19.77539
1710, 0.75098, -0.01013, -0.08337, 9.21631, 62.56104, 15.93018
1719, 0.77307, -0.02502, -0.10474, 9.15527, 47.24121, 11.23047
1727, 0.75867, -0.03552, -0.14795, 9.15527, 31.61621, 7.38525
1736, 0.74939, -0.02979, -0.15942, 6.22559, 19.53125, 6.22559
1745, 0.74390, -0.04272, -0.16968, 7.01904, 2.19727, 6.10352
1754, 0.73975, -0.06689, -0.15613, 8.23975, -14.46533, 7.08008
1763, 0.72949, -0.04919, -0.14905, 10.19287, -29.96826, 7.93457
1772, 0.73511, -0.03931, -0.15247, 11.53564, -44.92188, 8.54492
1781, 0.74927, -0.02673, -0.16260, 10.92529, -58.89893, 7.87354
1790, 0.76001, -0.02832, -0.18604, 7.44629, -71.83838, 5.06592
1798, 0.75562, -0.02539, -0.20801, 0.85449, -84.10645, 1.28174
1807, 0.74927, -0.01160, -0.23108, -7.87354, -96.67969, -1.70898
1816, 0.73633, -0.01855, -0.23816, -18.00537, -112.06055, -2.74658
1825, 0.71411, -0.01868, -0.22632, -28.32031, -131.16455, -3.05176
1834, 0.64087, 0.00085, -0.21069, -37.65869, -152.16064, -1.52588
1843, 0.60657, -0.02039, -0.17688, -44.98291, -175.84229, 4.63867
1852, 0.55493, -0.01794, -0.13086, -51.81885, -201.35498, 12.39014
1861, 0.51221, -0.01538, -0.04553, -56.70166, -227.05078, 20.56885
1870, 0.44495, 0.00830, 0.05823, -59.87549, -253.23486, 28.80859
1879, 0.44153, 0.09375, 0.22363, -60.79102, -274.10889, 35.21729
1888, 0.47900, 0.14941, 0.40100, -58.53271, -286.37695, 35.70557
1896, 0.48315, 0.19946, 0.53711, -49.56055, -290.10010, 29.11377
1905, 0.49194, 0.21777, 0.65149, -35.94971, -289.30664, 16.84570
1913, 0.48083, 0.21619, 0.73840, -18.92090, -285.58350, 3.05176
1922, 0.44678, 0.19250, 0.79236, -1.77002, -281.00586, -10.55908
1931, 0.36389, 0.13965, 0.80493, 15.74707, -276.18408, -21.66748
1939, 0.29260, 0.07837, 0.80713, 30.27344, -272.21680, -27.28271
1947, 0.21899, 0.01440, 0.80017, 40.10010, -270.69092, -27.70996
1955, 0.12988, -0.05188, 0.81470, 45.83740, -270.44678, -22.64404
1963, 0.00830, -0.13220, 0.87939, 46.32568, -267.33398, -13.12256
1971, 0.00830, -0.13220, 0.87939, 42.29736, -259.70459, 0.97656
1979, -0.04053, -0.19287, 0.96741, 42.29736, -244.07959, 17.39502
1987, -0.04102, -0.18701, 1.08301, 36.07178, -244.99512, 17.39502
1995, 0.00476, -0.13831, 1.18225, 32.16553, -223.38867, 30.09033
2003, 0.05579, -0.06970, 1.21802, 32.83691, -199.21875, 33.87451
2011, 0.07813, -0.01270, 1.16541, 37.17041, -180.23682, 28.62549
2019, 0.06384, 0.00793, 1.13831, 40.03906, -169.43359, 16.60156
2027, 0.01794, -0.02490, 1.13904, 37.65869, -161.86523, 2.86865
2035, -0.05432, -0.06555, 1.14246, 30.76172, -151.36719, -7.44629
2043, -0.12793, -0.09949, 1.16394, 18.98193, -137.51221, -13.85498
2051, -0.18884, -0.12952, 1.22656, 4.33350, -123.59619, -15.25879
2059, -0.23499, -0.16138, 1.30750, -7.50732, -109.25293, -12.87842
2067, -0.26624, -0.16284, 1.32922, -14.64844, -93.99414, -7.44629
2075, -0.26599, -0.16284, 1.32922, -17.39502, -80.74951, -1.15967
2083, -0.25378, -0.13489, 1.34570, -17.39502, -80.74951, -1.15967
2091, -0.23340, -0.10437, 1.37036, -15.93018, -73.18115, 3.54004
2099, -0.22510, -0.09265, 1.38196, -9.76562, -69.39697, 5.06592
2107, -0.22131, -0.09863, 1.38757, -1.34277, -66.40625, 4.27246
2116, -0.22083, -0.10803, 1.38391, 5.98145, -61.70654, 3.54004
2124, -0.22351, -0.11047, 1.38196, 11.59668, -54.62646, 2.31934
2132, -0.23584, -0.10510, 1.39551, 15.74707, -46.20361, 0.85449
2140, -0.23889, -0.10425, 1.42859, 18.06641, -37.71973, -1.40381
2148, -0.25269, -0.10913, 1.44897, 19.47021, -27.64893, -4.76074
2156, -0.28577, -0.12476, 1.45862, 18.85986, -14.64844, -9.46045
2165, -0.32141, -0.14978, 1.45984, 15.74707, 0.48828, -13.12256
2173, -0.33313, -0.16895, 1.49512, 9.70459, 18.73779, -15.86914
2181, -0.34192, -0.19739, 1.55249, 2.07520, 41.32080, -18.98193
2189, -0.36292, -0.20972, 1.59167, -4.76074, 69.09180, -21.91162
2197, -0.36292, -0.20972, 1.62292, -10.25391, 98.81592, -23.13232
2206, -0.35803, -0.16650, 1.62720, -14.77051, 127.80762, -23.92578
2215, -0.32361, -0.15833, 1.61890, -17.02881, 157.71484, -25.57373
2224, -0.32446, -0.15625, 1.56799, -18.18848, 186.09619, -28.07617
2233, -0.31262, -0.15308, 1.52979, -20.56885, 210.87646, -28.01514
2242, -0.23120, -0.15613, 1.52820, -23.55957, 233.76465, -26.24512
2250, -0.17029, -0.13525, 1.50378, -24.90234, 255.18799, -27.28271
2259, -0.15723, -0.07739, 1.47925, -25.87891, 276.12305, -29.60205
2268, -0.06775, -0.04236, 1.45166, -25.26855, 291.38184, -30.82275
2277, 0.00012, -0.00244, 1.42554, -23.92578, 302.49023, -34.91211
2286, 0.05945, -0.00952, 1.40149, -21.11816, 313.90381, -41.32080
2295, 0.06372, -0.03235, 1.35217, -15.38086, 322.87598, -46.08154
2304, 0.08582, -0.04395, 1.29407, -6.95801, 325.43945, -46.63086
2312, 0.12781, -0.06677, 1.21362, 1.89209, 323.73047, -43.39600
2321, 0.17822, -0.07996, 1.12024, 12.69531, 320.49561, -36.43799
2329, 0.21399, -0.05054, 1.03333, 23.31543, 314.51416, -28.38135
2338, 0.27417, -0.04883, 0.92187, 32.71484, 308.10547, -20.62988
2346, 0.32361, -0.05884, 0.78223, 40.40527, 299.68262, -13.48877
2355, 0.37903, -0.05981, 0.65601, 45.65430, 287.53662, -7.32422
2364, 0.42419, -0.07556, 0.51135, 49.80469, 272.33887, -2.25830
2373, 0.48132, -0.09265, 0.35632, 50.90332, 253.11279, 3.29590
2382, 0.52563, -0.09949, 0.23547, 47.72949, 231.75049, 9.39941
2390, 0.56006, -0.08130, 0.18201, 40.46631, 210.87646, 14.58740
2398, 0.59973, -0.07837, 0.12939, 33.69141, 193.48145, 18.31055
2407, 0.61572, -0.08325, 0.04724, 27.34375, 177.30713, 19.83643
2415, 0.62671, -0.07104, -0.01123, 20.75195, 162.35352, 21.66748
2424, 0.64062, -0.03979, -0.03589, 13.54980, 147.88818, 23.25439
2433, 0.66882, -0.02271, -0.03857, 7.56836, 134.52148, 23.80371
2441, 0.69226, -0.02002, -0.05481, 3.41797, 123.22998, 21.30127
2450, 0.69019, 0.00793, -0.10022, 2.07520, 112.24365, 17.57813
2458, 0.69019, 0.02185, -0.14429, 0.61035, 99.60938, 14.22119
2466, 0.70825, 0.02185, -0.14429, -1.77002, 87.64648, 10.13184
2474, 0.72375, 0.01013, -0.18286, -1.77002, 87.64648, 10.13184
2483, 0.72522, -0.00427, -0.21130, -4.27246, 76.47705, 0.61035
2491, 0.70764, -0.01306, -0.25806, -5.37109, 63.53760, 0.61035
2500, 0.70081, -0.03210, -0.28918, -5.12695, 47.60742, -1.28174
2509, 0.68542, -0.05237, -0.30762, -3.41797, 29.54102, 0.67139
2518, 0.66638, -0.07385, -0.32764, 0.54932, -10.19287, 5.55420
2527, 0.66101, -0.08899, -0.35706, 13.91602, -35.52246, 11.47461
2535, 0.64575, -0.09033, -0.38330, 13.91602, -35.52246, 18.37158
2544, 0.65686, -0.12085, -0.39734, 20.99609, -90.57617, 22.88818
2553, 0.61230, -0.06055, -0.39746, 21.78955, -113.40332, 26.61133
2562, 0.64258, -0.03943, -0.35461, 12.26807, -129.82178, 25.81787
2571, 0.65662, 0.01367, -0.34753, -1.09863, -140.01465, 22.33887
2580, 0.66394, 0.01318, -0.33154, -17.27295, -149.47510, 17.08984
2589, 0.66064, 0.02283, -0.28784, -34.66797, -160.09521, 10.86426
2598, 0.60486, 0.03699, -0.22009, -50.29297, -174.31641, 4.94385
2607, 0.53333, 0.03784, -0.11243, -61.76758, -192.44385, 2.68555
2615, 0.47180, 0.00708, -0.01685, -65.97900, -213.62305, 7.01904
2623, 0.37805, -0.02283, 0.07886, -62.37793, -236.14502, 16.78467
2632, 0.31335, -0.00208, 0.21179, -54.07715, -259.82666, 30.21240
2640, 0.31335, -0.00208, 0.21179, -41.19873, -282.53174, 46.32568
2648, 0.30823, 0.05713, 0.37573, -41.19873, -282.53174, 58.47168
2657, 0.38684, 0.15930, 0.55444, -10.31494, -306.33545, 57.43408
2666, 0.51843, 0.23523, 0.70288, 15.44189, -301.33057, 41.68701
2674, 0.56897, 0.29199, 0.80017, 15.44189, -301.33057, 17.33398
2683, 0.55774, 0.29187, 0.81824, 42.54150, -286.56006, -7.44629
2692, 0.49329, 0.24158, 0.73059, 79.77295, -284.30176, -27.64893
2700, 0.35754, 0.15100, 0.66284, 79.77295, -284.30176, -43.27393
2709, 0.19287, 0.03784, 0.63220, 80.38330, -284.79004, -43.02979
2717, 0.04297, -0.10718, 0.66125, 69.15283, -284.79004, -43.02979
2726, -0.05896, -0.26575, 0.77917, 51.14746, -276.18408, -31.25000
2735, -0.13135, -0.34558, 0.91260, 30.02930, -226.31836, 15.99121
2744, -0.13000, -0.31580, 0.98718, 2.44141, -211.36475, 39.06250
2753, -0.03174, -0.17163, 0.99548, -0.36621, -200.74463, 49.13330
2764, 0.02930, 0.02625, 1.14856, 6.34766, -199.34082, 47.24121
2772, 0.02100, 0.01965, 1.21936, 18.73779, -196.53320, 38.81836
2780, -0.02161, 0.00378, 1.24792, 28.07617, -185.91309, 27.34375
2788, -0.02161, -0.05872, 1.26184, 28.80859, -169.43359, 14.83154
2797, -0.10413, -0.01575, 1.28943, 21.11816, -149.04785, 1.64795
2806, -0.16162, -0.05396, 1.34033, 9.88770, -128.11279, -6.65283
2815, -0.19812, -0.07422, 1.42053, -2.38037, -107.60498, -12.20703
2824, -0.24219, -0.09802, 1.49194, -11.90186, -86.30371, -13.91602
2833, -0.27197, -0.11182, 1.54114, -17.33398, -65.73486, -11.10840
2842, -0.29834, -0.09314, 1.50720, -17.27295, -48.27881, -6.28662
2851, -0.29285, -0.06372, 1.47180, -13.30566, -38.45215, -0.97656
2860, -0.26782, -0.06921, 1.48572, -7.44629, -37.90283, 1.64795
2869, -0.26843, -0.08350, 1.52148, -0.42725, -38.63525, -0.48828
2878, -0.28247, -0.10388, 1.55664, 6.34766, -35.15625, -3.29590
2887, -0.28699, -0.12537, 1.57617, 11.77979, -27.03857, -6.83594
2895, -0.31335, -0.16248, 1.57690, 15.13672, -15.74707, -10.80322
2903, -0.33984, -0.19653, 1.58545, 15.07568, -2.86865, -13.79395
2912, -0.36865, -0.21631, 1.60632, 11.77979, 12.32910, -15.25879
2921, -0.38330, -0.23596, 1.63025, 8.54492, 30.39551, -14.16016
2930, -0.37817, -0.24451, 1.63928, 6.53076, 50.53711, -10.92529
2939, -0.36548, -0.23157, 1.61511, 6.83594, 71.89941, -7.38525
2948, -0.34546, -0.21423, 1.57849, 8.36182, 92.77344, -4.21143
2957, -0.29871, -0.18591, 1.55908, 9.39941, 112.54883, -1.89209
2965, -0.27625, -0.16797, 1.52759, 10.37598, 129.63867, -1.77002
2973, -0.25024, -0.19031, 1.48608, 11.23047, 146.36230, -2.31934
2981, -0.24609, -0.20508, 1.45886, 10.62012, 163.39111, -2.62451
2989, -0.25208, -0.20435, 1.42334, 9.03320, 180.23682, -1.22070
2997, -0.23328, -0.18579, 1.39307, 6.59180, 195.43457, 3.47900
3005, -0.23328, -0.18579, 1.39307, 3.47900, 209.53369, 9.70459
3013, -0.19897, -0.16284, 1.35742, 3.47900, 225.15869, 15.62500
3021, -0.15002, -0.15234, 1.30591, 0.48828, 221.67969, 15.62500
3029, -0.09131, -0.11462, 1.26501, -1.64795, 228.45459, 20.69092
3037, -0.00085, -0.09875, 1.22388, -3.47900, 233.39844, 23.31543
3045, 0.04700, -0.07910, 1.18250, -5.00488, 239.31885, 23.01025
3053, 0.07886, -0.06030, 1.13708, -6.40869, 242.12646, 21.30127
3061, 0.13489, -0.07153, 1.09106, -6.10352, 242.73682, 20.69092
3069, 0.19385, -0.06738, 1.05786, -4.57764, 241.21094, 20.75195
3077, 0.21936, -0.02148, 1.10718, -0.12207, 236.87744, 20.14160
3085, 0.28491, -0.03772, 1.11621, 7.01904, 237.91504, 17.70020
3093, 0.30530, -0.08899, 1.04175, 15.62500, 244.62891, 13.73291
3101, 0.27405, -0.08789, 0.96594, 23.86475, 247.25342, 11.84082
3109, 0.26514, -0.08789, 0.96594, 33.38623, 243.59131, 16.29639
3117, 0.29297, -0.07483, 0.91870, 33.38623, 243.59131, 16.29639
3125, 0.35986, -0.08472, 0.81677, 45.89844, 235.71777, 23.49854
3133, 0.40759, -0.07874, 0.69019, 60.42480, 221.80176, 30.15137
3141, 0.45300, -0.02832, 0.63501, 72.32666, 202.75879, 34.91211
3149, 0.51758, -0.01685, 0.57080, 80.87158, 186.15723, 36.43799
3157, 0.57141, -0.03967, 0.44800, 85.81543, 174.98779, 34.24072
3165, 0.57788, -0.00452, 0.38782, 80.38330, 168.09082, 28.07617
3173, 0.57922, -0.04443, 0.36707, 64.02588, 174.62158, 19.16504
3181, 0.55066, -0.07385, 0.30530, 46.20361, 188.65967, 11.59668
3189, 0.53235, -0.08997, 0.24744, 30.51758, 195.12939, 9.21631
3197, 0.54211, -0.07178, 0.21143, 19.95850, 191.46729, 13.24463
3205, 0.54211, -0.07178, 0.16187, 13.06152, 182.00684, 19.53125
3213, 0.58655, -0.05859, 0.16187, 13.06152, 171.87500, 24.10889
3221, 0.61487, -0.04761, 0.10181, 8.97217, 171.87500, 24.10889
3230, 0.63306, -0.00513, 0.07288, 9.15527, 159.85107, 26.91650
3238, 0.64648, 0.02515, 0.06006, 14.28223, 145.56885, 28.80859
3246, 0.67480, 0.02942, -0.01086, 22.76611, 133.48389, 28.80859
3255, 0.69958, 0.03564, -0.12354, 30.94482, 120.66650, 26.97754
3264, 0.71143, 0.05005, -0.21460, 36.31592, 104.30908, 23.98682
3273, 0.72559, 0.06763, -0.26782, 34.91211, 87.64648, 19.04297
3281, 0.72375, 0.03650, -0.31775, 25.93994, 81.54297, 11.96289
3290, 0.71790, 0.01733, -0.36084, 12.20703, 79.71191, 4.69971
3299, 0.69055, 0.00488, -0.38306, -0.54932, 72.93701, -0.06104
3308, 0.65710, 0.00146, -0.35254, -10.86426, 63.04932, -1.34277
3317, 0.64441, -0.01489, -0.32068, -18.79883, 55.90820, 2.62451
3326, 0.64819, 0.00562, -0.30908, -22.76611, 39.42871, 7.08008
3334, 0.67505, 0.01599, -0.33215, -20.14160, 39.42871, 7.08008
3343, 0.71570, 0.02136, -0.38135, -12.63428, 21.66748, 10.68115
3352, 0.73645, 0.01843, -0.43542, -5.12695, -21.78955, 9.33838
3361, 0.75012, 0.03345, -0.47314, 2.68555, -47.30225, 7.32422
3370, 0.75916, 0.05298, -0.51489, 2.25830, -75.80566, 4.15039
3379, 0.77771, 0.03394, -0.57031, 0.00000, -104.06494, -0.12207
3387, 0.76746, 0.03394, -0.57031, -8.78906, -134.94873, -5.00488
3395, 0.74377, 0.02515, -0.61926, -8.78906, -134.94873, -5.00488
3404, 0.70068, 0.02588, -0.62720, -24.84131, -197.93701, -9.03320
3413, 0.64709, 0.04309, -0.58435, -64.57520, -230.65186, -8.66699
3422, 0.57739, 0.06030, -0.47742, -79.89502, -264.09912, -7.01904
3431, 0.49988, 0.07397, -0.20605, -87.89063, -297.42432, -3.47900
3440, 0.36182, 0.10364, -0.08411, -91.24756, -329.58984, 1.58691
3449, 0.33386, 0.13342, 0.04089, -93.20068, -358.82568, 4.33350
3457, 0.33386, 0.13342, 0.27673, -93.32275, -380.49316, 2.80762
3465, 0.30298, 0.20483, 0.27673, -93.32275, -394.71436, -1.34277
3474, 0.26172, 0.28589, 0.54370, -55.72510, -401.97754, -6.59180
3483, 0.28870, 0.25659, 0.88977, -20.75195, -403.56445, -14.03809
3492, 0.24902, 0.18616, 1.00964, 19.59229, -400.20752, -21.97266
3500, 0.24048, 0.18616, 1.00964, 59.63135, -391.60156, -25.26855
3509, 0.15161, 0.13184, 1.11938, 93.68896, -375.42725, -23.55957
3517, 0.10632, 0.02942, 1.20679, 93.68896, -344.17725, -17.08984
3525, 0.01709, -0.04541, 1.17468, 118.04199, -348.02246, -17.08984
3533, -0.04639, -0.11145, 1.07605, 128.11279, -315.61279, -7.01904
3542, -0.12109, -0.17529, 0.94763, 121.76514, -290.10010, 3.23486
3550, -0.15137, -0.23572, 0.97900, 97.83936, -271.91162, 12.39014
3559, -0.16125, -0.26831, 1.10742, 65.67383, -251.40381, 18.00537
3567, -0.16235, -0.23486, 1.25513, 35.76660, -221.86279, 19.47021
3575, -0.11975, -0.15369, 1.38464, 13.48877, -188.35449, 15.31982
3584, -0.08875, -0.10461, 1.42102, 3.29590, -158.44727, 4.57764
3593, -0.11243, -0.09692, 1.42444, 2.19727, -136.53564, -11.35254
3602, -0.19617, -0.13733, 1.40161, 3.84521, -121.94824, -28.50342
3611, -0.26624, -0.19604, 1.37976, 2.68555, -108.15430, -39.06250
3620, -0.33752, -0.22534, 1.35974, -2.99072, -91.85791, -41.68701
3629, -0.37708, -0.22876, 1.36047, -11.35254, -76.41602, -38.20801
3638, -0.39087, -0.23132, 1.41553, -17.82227, -65.00244, -30.82275
3647, -0.40637, -0.23511, 1.46985, -19.53125, -56.27441, -23.80371
3656, -0.40942, -0.24609, 1.51074, -17.57813, -46.02051, -12.51221
3665, -0.40332, -0.24890, 1.53137, -9.27734, -23.68164, -10.55908
3674, -0.38733, -0.23682, 1.53882, -7.20215, -10.25391, -11.96289
3683, -0.38782, -0.22180, 1.53589, -7.32422, 3.47900, -14.77051
3692, -0.38098, -0.22388, 1.57239, -7.87354, 17.82227, -18.12744
3701, -0.38171, -0.22449, 1.61572, -5.85937, 34.60693, -21.60645
3710, -0.39795, -0.23767, 1.63379, -1.52588, 54.68750, -24.47510
3719, -0.40674, -0.23987, 1.62000, 1.95312, 78.43018, -25.39063
3728, -0.40881, -0.24329, 1.57397, 2.56348, 103.63770, -24.71924
3737, -0.39587, -0.23364, 1.53210, -0.91553, 129.15039, -23.07129
3746, -0.35620, -0.22449, 1.49341, -9.64355, 155.57861, -22.21680
3755, -0.32227, -0.20215, 1.46692, -23.07129, 183.10547, -22.70508
3764, -0.25244, -0.15320, 1.47656, -39.24561, 212.64648, -24.16992
3773, -0.17297, -0.11218, 1.50183, -54.44336, 242.55371, -28.25928
3782, -0.06567, -0.07336, 1.55701, -63.90381, 270.81299, -36.68213
3791, -0.06299, -0.03186, 1.55896, -64.20898, 297.66846, -47.48535
3800, -0.03918, 0.02283, 1.56531, -56.82373, 318.66455, -54.56543
3809, 0.00269, 0.03345, 1.53162, -43.76221, 329.77295, -59.99756
3817, 0.07227, 0.04199, 1.50439, -27.22168, 335.20508, -63.65967
3826, 0.13391, 0.03809, 1.45093, -11.10840, 338.92822, -66.46729
3834, 0.14465, 0.02087, 1.36743, 6.28662, 339.47754, -70.12939
3843, 0.15466, 0.00244, 1.28906, 25.02441, 335.93750, -69.70215
3851, 0.17358, -0.00110, 1.20776, 44.43359, 328.43018, -63.11035
3860, 0.23096, -0.01147, 1.11633, 64.88037, 318.35937, -52.42920
3869, 0.28735, -0.03613, 0.96948, 82.94678, 306.82373, -42.35840
3879, 0.33081, -0.06580, 0.80408, 93.32275, 294.49463, -33.81348
3888, 0.37231, -0.08691, 0.65332, 95.09277, 282.28760, -25.69580
3897, 0.41187, -0.11072, 0.51221, 89.41650, 269.47021, -17.88330
3905, 0.44299, -0.15894, 0.37073, 77.39258, 260.00977, -10.43701
3914, 0.47424, -0.19836, 0.24341, 62.80518, 251.15967, -1.52588
3923, 0.51782, -0.21252, 0.16162, 48.64502, 239.56299, 9.33838
3931, 0.56140, -0.19348, 0.08435, 35.27832, 225.03662, 18.85986
3939, 0.57764, -0.13745, 0.06555, 24.59717, 212.03613, 24.78027
3947, 0.62646, -0.11011, 0.03723, 15.44189, 204.04053, 26.30615
3955, 0.63708, -0.10510, -0.05664, 10.43701, 196.77734, 24.35303
3964, 0.65332, -0.12146, -0.18225, 8.60596, 182.06787, 22.03369
3972, 0.64880, -0.14038, -0.25562, 6.95801, 161.13281, 21.36230
3980, 0.61487, -0.11316, -0.22595, 4.82178, 140.62500, 20.93506
3988, 0.61816, -0.09082, -0.20410, 4.51660, 127.80762, 20.50781
3996, 0.61816, -0.08020, -0.26746, 4.94385, 120.17822, 19.47021
4004, 0.61218, -0.08020, -0.26746, 4.57764, 114.01367, 19.10400
4012, 0.63647, -0.09363, -0.35364, 4.57764, 114.01367, 19.10400
4020, 0.68018, -0.10742, -0.44702, 4.21143, 100.46387, 19.16504
4028, 0.69824, -0.09241, -0.49255, 3.96729, 76.84326, 17.39502
4036, 0.72314, -0.07495, -0.49927, 5.49316, 50.59814, 14.16016
4044, 0.72888, -0.07642, -0.53479, 9.46045, 22.82715, 9.09424
4052, 0.71497, -0.08044, -0.54651, 14.46533, -5.24902, 3.35693
4060, 0.69275, -0.09290, -0.54749, 19.77539, -33.26416, -0.91553
4068, 0.65015, -0.11462, -0.57959, 24.84131, -62.62207, -2.92969
4076, 0.62292, -0.17053, -0.62805, 27.28271, -93.13965, -0.73242
4084, 0.60889, -0.20276, -0.64160, 24.59717, -122.92480, 4.51660
4092, 0.55176, -0.19360, -0.60852, 18.98193, -150.57373, 11.90186
4100, 0.55176, -0.19360, -0.55298, 11.96289, -179.50439, 24.29199
4108, 0.53564, -0.20569, -0.55298, 11.96289, -208.61816, 37.10938
4116, 0.50977, -0.18896, -0.45435, 5.79834, -208.61816, 37.10938
4124, 0.46826, -0.14636, -0.32495, 2.92969, -235.59570, 49.49951
4134, 0.43970, -0.09399, -0.21045, 2.74658, -282.77588, 72.14355
4142, 0.44202, -0.04749, -0.12524, 1.22070, -282.77588, 72.14355
4150, 0.49304, 0.02307, -0.02661, -5.06592, -297.30225, 78.12500
4158, 0.52478, 0.09314, 0.08447, -17.88330, -304.87061, 75.19531
4166, 0.53833, 0.14355, 0.21094, -32.28760, -305.35889, 65.55176
4174, 0.52856, 0.14697, 0.34705, -43.02979, -303.95508, 53.34473
4182, 0.49365, 0.15735, 0.49976, -48.46191, -302.73437, 40.22217
4190, 0.45654, 0.13757, 0.62952, -45.65430, -301.87988, 30.15137
4198, 0.37976, 0.12085, 0.72241, -33.63037, -302.91748, 23.74268
4206, 0.33813, 0.09436, 0.82581, -17.82227, -303.89404, 20.38574
4214, 0.29541, 0.08521, 0.91919, 0.54932, -304.87061, 20.50781
4222, 0.28442, 0.08191, 1.02051, 21.05713, -304.26025, 22.03369
4230, 0.28442, 0.08191, 1.02051, 42.54150, -298.70605, 21.66748
4238, 0.27075, 0.08118, 1.10022, 42.54150, -298.70605, 21.66748
4247, 0.26074, 0.05188, 1.16382, 62.92725, -272.21680, 13.36670
4255, 0.23389, 0.00525, 1.16528, 78.24707, -272.21680, 13.36670
4264, 0.20105, -0.02417, 1.12927, 85.44922, -252.13623, 7.08008
4273, 0.15662, -0.04431, 1.10510, 83.37402, -215.14893, -5.73730
4281, 0.10242, -0.09509, 1.07324, 76.11084, -212.09717, -5.73730
4290, 0.02747, -0.14270, 1.03625, 64.33105, -196.28906, -10.13184
4298, -0.01660, -0.18896, 1.05933, 49.19434, -181.21338, -10.37598
4306, -0.08655, -0.21472, 1.05249, 33.99658, -166.01562, -6.53076
4314, -0.08923, -0.20801, 1.09106, 19.59229, -153.01514, 0.48828
4322, -0.06226, -0.17883, 1.17896, 9.64355, -143.37158, 6.53076
4334, -0.05359, -0.17285, 1.26575, 7.38525, -124.20654, 6.59180
4342, -0.07349, -0.17334, 1.28198, 11.47461, -124.20654, 6.59180
4351, -0.10046, -0.18091, 1.24353, 16.35742, -112.91504, 0.97656
4360, -0.12207, -0.19409, 1.18652, 17.02881, -93.44482, -0.73242
4369, -0.14038, -0.20667, 1.19409, 2.74658, -82.09229, -1.46484
4378, -0.16565, -0.20923, 1.24255, -6.89697, -68.29834, -0.48828
4387, -0.13269, -0.18127, 1.29419, -16.72363, -54.32129, -0.67139
4396, -0.14136, -0.16882, 1.35388, -23.19336, -40.34424, -2.80762
4405, -0.15295, -0.16882, 1.41418, -26.67236, -26.79443, -7.75146
4414, -0.19165, -0.17651, 1.47339, -26.61133, -13.18359, -13.00049
4423, -0.23804, -0.17383, 1.50464, -23.62061, 0.67139, -16.05225
4432, -0.23669, -0.17810, 1.54785, -19.53125, 16.29639, -15.86914
4441, -0.22070, -0.16382, 1.63135, -14.22119, 32.65381, -15.62500
4450, -0.20374, -0.13403, 1.75391, -6.59180, 51.87988, -18.00537
4459, -0.20398, -0.14465, 1.81360, 3.60107, 80.20020, -22.39990
4468, -0.22009, -0.16187, 1.77283, 10.74219, 116.14990, -28.99170
4477, -0.27002, -0.17627, 1.66919, 5.18799, 154.35791, -38.39111
4486, -0.28809, -0.20654, 1.59119, -16.23535, 193.48145, -47.60742
4495, -0.27759, -0.21606, 1.58740, -50.10986, 235.04639, -54.44336
4504, -0.22839, -0.18677, 1.61121, -85.63232, 275.39062, -57.06787
4513, -0.10608, -0.12451, 1.69604, -113.34229, 312.31689, -59.75342
4522, -0.02893, -0.01086, 1.79919, -124.45068, 345.58105, -63.53760
4531, 0.07971, 0.06262, 1.84937, -116.39404, 372.25342, -68.17627
4540, 0.09668, 0.08044, 1.77588, -90.63721, 388.24463, -76.11084
4549, 0.12561, 0.10376, 1.66956, -54.07715, 393.85986, -82.82471
4558, 0.18591, 0.09485, 1.52234, -15.07568, 385.37598, -86.05957
4566, 0.21252, 0.09790, 1.36072, 22.64404, 365.66162, -87.40234
4574, 0.24573, 0.09094, 1.18506, 52.91748, 344.54346, -86.85303
4582, 0.28125, 0.01733, 0.99866, 71.16699, 332.15332, -83.49609
4590, 0.27295, -0.05713, 0.81604, 75.13428, 325.80566, -78.55225
4599, 0.30566, -0.12415, 0.66797, 68.48145, 322.93701, -68.96973
4608, 0.33472, -0.18042, 0.52820, 55.54199, 318.78662, -54.74854
4616, 0.37744, -0.22974, 0.38086, 40.28320, 311.40137, -38.08594
4624, 0.41077, -0.26135, 0.21387, 29.29688, 298.64502, -18.67676
4633, 0.50488, -0.28650, 0.05176, 22.88818, 276.42822, 2.62451
4642, 0.55334, -0.22571, -0.01099, 17.21191, 246.70410, 22.52197
4650, 0.63232, -0.12793, 0.00964, 13.30566, 221.06934, 35.82764
4658, 0.66919, -0.06531, -0.04504, 15.07568, 202.20947, 39.42871
4666, 0.66455, -0.03223, -0.13892, 18.55469, 184.63135, 37.17041
4675, 0.67334, -0.01257, -0.16492, 20.75195, 167.35840, 34.36279
4683, 0.69324, -0.02051, -0.18665, 24.53613, 148.86475, 31.61621
4692, 0.69519, -0.04016, -0.24060, 28.38135, 128.23486, 28.19824
4701, 0.66797, -0.00537, -0.22583, 29.66309, 111.08398, 24.78027
4710, 0.66528, 0.02698, -0.22156, 27.89307, 101.25732, 21.78955
4719, 0.68188, 0.01880, -0.27991, 25.93994, 94.84863, 18.79883
4728, 0.72668, -0.00671, -0.36707, 23.74268, 86.97510, 16.05225
4737, 0.75256, -0.02344, -0.41235, 20.14160, 71.83838, 12.75635
4746, 0.74561, -0.01953, -0.40588, 16.72363, 51.75781, 8.36182
4754, 0.72839, -0.02478, -0.40369, 16.35742, 32.16553, 4.57764
4762, 0.69971, -0.03052, -0.42358, 18.49365, 12.20703, 3.29590
4770, 0.68530, -0.03674, -0.43787, 22.33887, -8.54492, 4.82178
4778, 0.71655, -0.04089, -0.44983, 28.07617, -30.76172, 7.99561
4787, 0.68530, -0.07495, -0.45776, 34.48486, -55.17578, 10.49805
4796, 0.65503, -0.07910, -0.45312, 40.71045, -80.68848, 13.61084
4805, 0.65161, -0.06738, -0.44312, 45.83740, -106.20117, 18.12744
4814, 0.66345, -0.05200, -0.44983, 44.79980, -128.84521, 20.93506
4823, 0.64294, 0.00500, -0.41687, 34.91211, -144.34814, 21.05713
4832, 0.68750, 0.03467, -0.36072, 19.22607, -152.89307, 20.87402
4841, 0.68604, 0.06421, -0.33142, 5.24902, -159.24072, 16.54053
4849, 0.68323, 0.07605, -0.28149, -6.34766, -169.06738, 12.32910
4858, 0.66028, 0.06360, -0.22412, -14.22119, -184.93652, 10.55908
4866, 0.60925, 0.05298, -0.14661, -18.24951, -204.52881, 10.92529
4874, 0.56152, -0.02808, -0.07068, -19.10400, -225.52490, 15.56396
4883, 0.50183, -0.08936, 0.01379, -18.43262, -246.52100, 24.41406
4892, 0.41785, -0.11682, 0.09229, -16.66260, -265.31982, 36.37695
4901, 0.36121, -0.13562, 0.16528, -13.61084, -283.56934, 52.85645
4910, 0.30713, -0.10657, 0.25110, -11.10840, -301.81885, 71.16699
4919, 0.29285, -0.05713, 0.35693, -8.60596, -317.93213, 87.34131
4928, 0.34766, 0.07019, 0.50940, -6.65283, -330.13916, 97.29004
4937, 0.47791, 0.19592, 0.69702, -3.11279, -333.19092, 96.06934
4946, 0.57959, 0.26965, 0.82776, 7.01904, -325.37842, 79.77295
4954, 0.58276, 0.28955, 0.90198, 25.20752, -312.25586, 53.40576
4962, 0.51746, 0.28333, 0.91870, 45.65430, -300.47607, 24.96338
4970, 0.40857, 0.21008, 0.85071, 65.24658, -291.50391, 1.77002
4978, 0.25171, 0.13245, 0.80139, 76.11084, -287.59766, -12.20703
4986, 0.25171, 0.13245, 0.80139, 76.23291, -287.23145, -17.45605
4994, 0.11768, 0.02588, 0.81201, 76.23291, -287.23145, -12.81738
5002, -0.00024, -0.07739, 0.86890, 69.58008, -282.89795, -12.81738
5010, -0.05969, -0.14075, 0.94714, 61.09619, -274.84131, -0.42725
5018, -0.07068, -0.15137, 1.04297, 53.58887, -263.18359, 14.16016
5026, -0.06140, -0.13135, 1.15308, 49.13330, -246.70410, 24.71924
5034, -0.01416, -0.08411, 1.22717, 49.86572, -227.23389, 29.96826
5042, 0.01038, -0.06384, 1.24817, 54.74854, -208.00781, 26.91650
5050, 0.00964, -0.02979, 1.23962, 59.99756, -188.53760, 16.90674
5058, -0.00562, -0.05505, 1.18713, 62.80518, -170.59326, 3.54004
5066, -0.05273, -0.09070, 1.15259, 59.63135, -155.76172, -11.59668
5074, -0.10754, -0.10291, 1.17285, 49.43848, -139.09912, -26.24512
5082, -0.10754, -0.14612, 1.20154, 34.97314, -119.99512, -37.71973
5090, -0.15698, -0.14612, 1.20154, 18.79883, -102.78320, -47.48535
5098, -0.23889, -0.16809, 1.20337, 18.79883, -102.78320, -47.48535
5106, -0.31506, -0.20325, 1.22363, 1.28174, -87.46338, -52.55127
5114, -0.32947, -0.22327, 1.28455, -15.19775, -72.14355, -50.04883
5122, -0.33728, -0.22656, 1.34949, -25.45166, -58.89893, -43.70117
5130, -0.33789, -0.21118, 1.40686, -26.42822, -50.72021, -36.74316
5138, -0.30676, -0.20911, 1.46240, -19.83643, -45.28809, -29.78516
5147, -0.29724, -0.21448, 1.47351, -8.11768, -40.16113, -24.78027
5155, -0.29102, -0.21912, 1.46106, 4.27246, -33.32520, -21.24023
5163, -0.27808, -0.21912, 1.44727, 14.40430, -24.53613, -18.49365
5171, -0.30078, -0.21338, 1.42786, 20.93506, -14.89258, -18.06641
5179, -0.30957, -0.20740, 1.41638, 22.52197, -4.63867, -19.83643
5187, -0.28748, -0.22327, 1.41626, 16.23535, 9.15527, -24.23096
5195, -0.28748, -0.25073, 1.45911, 1.46484, 30.63965, -32.53174
5203, -0.27844, -0.25073, 1.45911, -18.31055, 59.32617, -44.12842
5211, -0.30518, -0.25793, 1.54651, -18.31055, 59.32617, -44.12842
5219, -0.33325, -0.27502, 1.66064, -38.87939, 96.13037, -53.83301
5227, -0.30786, -0.23352, 1.81250, -56.45752, 140.62500, -60.66895
5235, -0.28333, -0.17566, 1.91541, -66.16211, 189.69727, -68.35938
5243, -0.28845, -0.11902, 1.94275, -65.79590, 234.49707, -78.18604
5252, -0.29968, -0.05042, 1.91858, -59.38721, 270.14160, -87.40234
5261, -0.27112, -0.03235, 1.84351, -50.10986, 301.26953, -93.07861
5270, -0.20532, -0.01099, 1.80090, -45.28809, 331.23779, -96.43555
5279, -0.12427, -0.01001, 1.77661, -45.77637, 361.87744, -106.26221
5288, -0.10901, 0.05725, 1.73560, -47.36328, 394.34814, -115.96680
5297, -0.00891, 0.06555, 1.70264, -47.91260, 425.84229, -124.26758
5306, 0.05420, 0.10730, 1.67078, -43.33496, 448.79150, -133.05664
5314, 0.10669, 0.10144, 1.64221, -31.73828, 460.57129, -143.06641
5322, 0.10889, 0.07532, 1.49841, -9.09424, 461.60889, -150.63477
5330, 0.04468, 0.02136, 1.27112, 21.11816, 450.56152, -150.63477
5339, 0.07434, -0.05286, 1.01257, 48.70605, 429.50439, -137.81738
5348, 0.10388, -0.14392, 0.71228, 70.49561, 401.06201, -114.62402
5357, 0.14514, -0.20422, 0.42639, 83.06885, 369.93408, -87.52441
5365, 0.23242, -0.33191, 0.09033, 88.01270, 339.29443, -58.95996
5373, 0.30505, -0.43079, -0.19226, 81.29883, 303.52783, -28.25928
5382, 0.37708, -0.42480, -0.27087, 62.43896, 266.72363, -0.54932
5391, 0.44788, -0.34875, -0.23010, 43.39600, 236.93848, 21.78955
5400, 0.50598, -0.26111, -0.20056, 33.56934, 208.86230, 36.74316
5409, 0.54041, -0.20105, -0.23254, 33.20313, 180.72510, 45.16602
5417, 0.56238, -0.15955, -0.28113, 37.59766, 153.38135, 49.25537
5425, 0.59021, -0.11963, -0.30518, 43.70117, 125.61035, 50.53711
5433, 0.60107, -0.05090, -0.29736, 49.31641, 98.26660, 49.92676
5442, 0.62329, 0.00610, -0.27112, 51.26953, 77.51465, 46.02051
5451, 0.64453, 0.01172, -0.28113, 49.01123, 67.44385, 38.69629
5459, 0.65198, -0.00513, -0.31458, 44.55566, 62.43896, 29.78516
5467, 0.63391, -0.02014, -0.33667, 39.24561, 58.71582, 22.76611
5476, 0.61829, -0.04163, -0.35583, 34.48486, 54.87061, 19.16504
5489, 0.61536, -0.06348, -0.36755, 31.00586, 48.33984, 19.71436
5498, 0.60547, -0.05896, -0.33984, 27.58789, 39.36768, 27.58789
5507, 0.61914, -0.05554, -0.29492, 23.62061, 28.32031, 31.00586
5516, 0.64014, -0.06201, -0.28796, 20.62988, 23.01025, 33.63037
5524, 0.66553, -0.04968, -0.25195, 20.62988, 23.01025, 33.63037
5533, 0.67847, -0.02209, -0.20374, 21.30127, 12.39014, 33.81348
5542, 0.69080, -0.00891, -0.18665, 34.79004, 5.12695, 33.32520
5551, 0.72400, -0.02100, -0.29614, 39.91699, -7.32422, 32.77588
5559, 0.73572, -0.03003, -0.30518, 39.91699, -23.43750, 32.95898
5567, 0.73083, -0.02539, -0.34888, 40.64941, -23.43750, 32.95898
5576, 0.73010, -0.01294, -0.29626, 37.71973, -40.46631, 33.38623
5585, 0.74011, -0.02197, -0.24402, 38.57422, -88.25684, 37.71973
5593, 0.74121, -0.03821, -0.27795, 44.92188, -78.61328, 37.71973
5601, 0.75159, -0.06812, -0.27991, 50.72021, -106.62842, 42.23633
5609, 0.77649, -0.12061, -0.23132, 55.29785, -136.59668, 46.50879
5618, 0.69421, -0.04785, -0.24402, 60.72998, -166.13770, 46.44775
5626, 0.66760, -0.03687, -0.21033, 62.07275, -193.96973, 48.64502
5635, 0.65027, -0.03735, -0.21606, 60.11963, -225.28076, 55.11475
5643, 0.61511, -0.02917, -0.12146, 53.34473, -255.37109, 59.14307
5652, 0.55957, -0.01184, 0.04089, 44.00635, -279.11377, 60.72998
5661, 0.51685, 0.01538, 0.19385, 34.48486, -294.06738, 60.85205
5670, 0.51367, 0.01660, 0.27039, 25.39063, -300.65918, 61.88965
5678, 0.54541, 0.00452, 0.27380, 13.54980, -302.55127, 61.88965
5686, 0.55957, 0.04639, 0.30505, -3.54004, -303.83301, 57.67822
5694, 0.54333, 0.08594, 0.35925, -22.27783, -306.94580, 50.10986
5702, 0.50928, 0.12854, 0.47656, -38.63525, -314.20898, 40.40527
5710, 0.45984, 0.14929, 0.60315, -47.42432, -323.97461, 31.43311
5718, 0.40747, 0.14441, 0.70654, -46.44775, -334.89990, 24.65820
5726, 0.32239, 0.13965, 0.79810, -38.87939, -348.81592, 18.43262
5734, 0.14941, 0.21216, 0.91675, -26.61133, -361.57227, 14.03809
5742, 0.14941, 0.21216, 0.91675, -12.69531, -366.57715, 15.38086
5750, 0.16577, 0.20300, 1.11267, -12.69531, -366.57715, 16.41846
5758, 0.19666, 0.23560, 1.31348, 0.85449, -362.54883, 16.41846
5766, 0.22290, 0.22900, 1.47754, 18.31055, -341.85791, 10.62012
5774, 0.19604, 0.20605, 1.52905, 37.96387, -307.31201, 2.01416
5782, 0.19580, 0.16858, 1.47827, 56.82373, -267.39502, -4.94385
5790, 0.14648, 0.14014, 1.33997, 72.44873, -233.70361, -12.02393
5798, 0.07764, 0.10767, 1.24011, 82.39746, -213.86719, -18.55469
5806, -0.00366, 0.01831, 1.19373, 85.14404, -205.87158, -24.53613
5814, -0.08801, -0.08984, 1.21838, 78.55225, -197.63184, -27.46582
5822, -0.19495, -0.16040, 1.17603, 63.90381, -177.42920, -25.08545
5830, -0.19812, -0.18433, 1.16870, 44.12842, -151.06201, -16.41846
5838, -0.19812, -0.16272, 1.21301, 25.75684, -130.06592, -8.78906
5846, -0.15698, -0.16272, 1.21301, 15.80811, -114.37988, -7.62939
5854, -0.13306, -0.13892, 1.27271, 15.80811, -114.37988, -7.62939
5862, -0.11353, -0.12024, 1.23840, 13.18359, -101.01318, -10.92529
5870, -0.12695, -0.12659, 1.21301, 10.92529, -87.52441, -15.62500
5878, -0.15112, -0.12793, 1.16931, 7.44629, -76.23291, -21.17920
5886, -0.19238, -0.13525, 1.17249, 0.61035, -65.18555, -25.20752
5894, -0.22559, -0.13940, 1.19287, -6.77490, -54.99268, -26.79443
5902, -0.23938, -0.14551, 1.22620, -12.69531, -44.92188, -26.24512
5910, -0.25403, -0.14868, 1.22021, -15.31982, -36.13281, -23.86475
5918, -0.25781, -0.16260, 1.21924, -15.50293, -28.68652, -19.59229
5926, -0.25146, -0.17542, 1.22754, -14.77051, -22.27783, -15.38086
5934, -0.26282, -0.18738, 1.24255, -13.00049, -17.02881, -11.84082
5942, -0.26282, -0.18738, 1.24255, -11.10840, -10.80322, -9.46045
5950, -0.27625, -0.20166, 1.27258, -11.10840, -10.80322, -7.62939
5959, -0.28418, -0.21179, 1.29395, -8.60596, 8.85010, -7.01904
5968, -0.28101, -0.19897, 1.31396, -9.70459, 22.58301, -9.27734
5977, -0.25977, -0.13025, 1.39087, -15.19775, 40.10010, -18.00537
5986, -0.23633, -0.14075, 1.41211, -28.62549, 65.49072, -33.87451
5995, -0.20972, -0.14172, 1.48474, -56.45752, 101.98975, -56.15234
6004, -0.21667, -0.14819, 1.61987, -97.96143, 155.21240, -81.66504
6013, -0.20374, -0.03979, 1.82996, -140.62500, 221.19141, -107.23877
6022, -0.13428, 0.08899, 2.02405, -172.11914, 290.77148, -131.65283
6031, -0.12695, 0.24329, 2.19275, -184.32617, 356.87256, -158.32520
6040, -0.07605, 0.42932, 2.37268, -174.86572, 416.32080, -186.64551
6049, 0.00000, 0.49048, 2.44543, -144.83643, 474.91455, -219.48242
6057, -0.23486, 0.52661, 2.26611, -98.99902, 527.64893, -253.29590
6065, -0.41675, 0.41687, 1.99109, -48.70605, 554.19922, -274.23096
6074, -0.47620, 0.30664, 1.73279, 4.33350, 545.83740, -262.57324
6083, -0.40955, 0.16711, 1.38416, 69.45801, 504.39453, -223.38867
6092, -0.19202, 0.04150, 1.03601, 133.05664, 453.06396, -172.18018
6100, 0.03320, -0.09753, 0.61560, 181.21338, 409.24072, -127.38037
6109, 0.15149, -0.24951, 0.10889, 203.73535, 363.70850, -91.24756
6118, 0.27710, -0.38843, -0.32886, 191.52832, 312.92725, -58.89893
6127, 0.38257, -0.41833, -0.44458, 149.10889, 268.12744, -27.64893
6136, 0.50110, -0.33472, -0.29211, 92.04102, 237.79297, 0.48828
6145, 0.57935, -0.21790, -0.09534, 44.12842, 220.70312, 19.95850
6154, 0.65637, -0.13684, 0.02173, 18.06641, 209.83887, 31.00586
6162, 0.70605, -0.07642, 0.02441, 10.86426, 193.96973, 36.31592
6171, 0.74194, -0.01453, -0.02197, 12.81738, 171.63086, 38.26904
6180, 0.78101, 0.01526, -0.09790, 19.89746, 148.13232, 38.33008
6188, 0.78955, 0.03955, -0.17578, 26.79443, 122.86377, 35.58350
6197, 0.78857, 0.06152, -0.19617, 31.18896, 98.99902, 31.18896
6205, 0.77014, 0.07324, -0.17651, 35.70557, 77.94189, 26.42822
6213, 0.74658, 0.08472, -0.13794, 40.46631, 61.15723, 21.91162
6221, 0.74707, 0.06641, -0.15637, 44.73877, 51.08643, 19.53125
6229, 0.74707, 0.03003, -0.21228, 45.77637, 43.21289, 18.55469
6238, 0.78308, 0.01526, -0.24634, 42.54150, 33.87451, 17.51709
6247, 0.79797, 0.01733, -0.23596, 37.65869, 22.88818, 16.17432
6256, 0.80676, 0.02051, -0.21631, 34.05762, 10.68115, 13.79395
6264, 0.81812, 0.01904, -0.20398, 32.40967, -1.28174, 10.00977
6273, 0.82422, 0.01709, -0.19714, 33.08105, -13.12256, 5.98145
6281, 0.82422, 0.01709, -0.20947, 35.09521, -28.01514, 1.28174
6290, 0.79980, -0.00256, -0.24170, 37.23145, -46.08154, -1.83105
6299, 0.81335, -0.05103, -0.27490, 37.71973, -67.13867, -2.92969
6308, 0.75818, -0.02087, -0.28418, 35.33936, -90.63721, -4.27246
6316, 0.69568, -0.02881, -0.25671, 33.44727, -117.00439, -2.74658
6324, 0.71313, -0.02881, -0.25671, 35.15625, -144.77539, 2.50244
6333, 0.65625, -0.05054, -0.24866, 36.49902, -170.16602, 10.74219
6342, 0.59888, -0.10645, -0.17432, 37.10938, -193.23730, 21.24023
6351, 0.50684, -0.13440, -0.15247, 36.74316, -214.90479, 33.50830
6360, 0.46191, -0.13147, -0.12793, 33.08105, -233.45947, 45.65430
6369, 0.40955, -0.10205, -0.06812, 24.47510, -248.53516, 57.86133
6377, 0.37976, -0.06824, -0.01343, 13.18359, -262.93945, 69.82422
6386, 0.40063, 0.00134, 0.06836, -2.25830, -273.49854, 77.33154
6395, 0.41931, 0.05261, 0.16711, -20.50781, -275.87891, 78.49121
6404, 0.43164, 0.09888, 0.27173, -38.02490, -274.90234, 74.52393
6412, 0.42371, 0.10583, 0.36169, -50.72021, -275.39062, 67.07764
6421, 0.40637, 0.12402, 0.47302, -56.94580, -276.85547, 57.43408
6430, 0.34729, 0.12683, 0.58826, -56.39648, -278.86963, 47.91260
6439, 0.27588, 0.09326, 0.66138, -48.03467, -280.63965, 41.74805
6447, 0.22083, 0.06348, 0.74316, -36.31592, -280.02930, 41.13770
6456, 0.17517, 0.01636, 0.83105, -24.16992, -277.89307, 45.83740
6465, 0.14746, 0.01575, 0.92554, -12.69531, -273.37646, 53.34473
6474, 0.18652, 0.09839, 1.06897, -2.50244, -261.71875, 60.54688
6483, 0.27917, 0.12793, 1.13245, 9.88770, -241.94336, 64.57520
6491, 0.32703, 0.18359, 1.13513, 26.30615, -219.05518, 60.85205
6499, 0.35620, 0.24390, 1.12427, 43.21289, -203.85742, 48.09570
6507, 0.35620, 0.24390, 1.11987, 58.77686, -196.16699, 31.25000
6515, 0.30054, 0.22375, 1.11987, 74.40186, -191.28418, 17.02881
6523, 0.23474, 0.14648, 1.08240, 69.39697, -191.28418, 17.02881
6532, 0.11914, 0.09814, 1.06445, 69.21387, -184.50928, -0.30518
6541, 0.04053, 0.00720, 1.06946, 59.02100, -159.30176, 0.36621
6550, -0.00500, -0.06287, 1.10962, 19.59229, -138.85498, 4.63867
6559, -0.03760, -0.08325, 1.19067, 1.77002, -117.67578, 10.13184
6568, 0.03088, -0.04492, 1.23999, -9.58252, -103.14941, 13.24463
6577, 0.01965, 0.01587, 1.30542, -12.57324, -94.11621, 10.13184
6585, 0.01965, 0.01587, 1.30542, -9.21631, -87.09717, 4.02832
6594, 0.00208, -0.00330, 1.33105, -1.40381, -81.17676, -2.92969
6603, -0.01428, -0.02405, 1.31262, 5.00488, -73.24219, -8.42285
6613, -0.06140, -0.03381, 1.28040, 8.66699, -65.24658, -12.32910
6622, -0.09985, -0.03882, 1.23755, 10.92529, -57.86133, -12.87842
6631, -0.10828, -0.05481, 1.24524, 11.53564, -53.77197, -10.62012
6640, -0.11414, -0.06958, 1.26404, 10.49805, -50.04883, -8.36182
6649, -0.11963, -0.07019, 1.27087, 9.03320, -41.68701, -5.49316
6657, -0.12561, -0.07593, 1.27686, 7.87354, -32.95898, -2.38037
6666, -0.14099, -0.09106, 1.29211, 6.28662, -25.39063, -1.22070
6675, -0.15894, -0.10107, 1.31311, 4.02832, -16.11328, -0.48828
6684, -0.16541, -0.09155, 1.34192, 1.22070, -5.37109, -0.06104
6693, -0.15405, -0.05981, 1.38086, -2.99072, 6.46973, -1.40381
6703, -0.13489, -0.04150, 1.42371, -6.95801, 20.14160, -5.73730
6712, -0.12756, -0.02966, 1.48584, -11.35254, 36.25488, -13.85498
6722, -0.13684, -0.03748, 1.52405, -17.08984, 57.98340, -24.71924
6731, -0.17639, -0.06152, 1.55127, -24.47510, 85.02197, -35.33936
6740, -0.22974, -0.08215, 1.57349, -34.17969, 114.86816, -42.96875
6749, -0.24756, -0.06543, 1.65454, -45.28809, 144.89746, -46.50879
6758, -0.16003, -0.00146, 1.77710, -56.76270, 176.94092, -55.29785
6767, -0.10803, 0.02319, 1.77502, -62.13379, 243.34717, -64.02588
6776, -0.09143, 0.09961, 1.74841, -57.67822, 265.86914, -72.38770
6785, -0.04687, 0.16052, 1.66089, -52.55127, 283.56934, -79.77295
6793, 0.02966, 0.18945, 1.66089, -52.55127, 302.00195, -90.88135
6802, 0.11890, 0.19934, 1.64001, -45.34912, 324.89014, -102.96631
6811, 0.12915, 0.20740, 1.49707, -43.88428, 347.96143, -111.45020
6820, 0.19885, 0.20447, 1.49756, -44.49463, 369.14062, -117.85889
6829, 0.19824, 0.15662, 1.38342, -37.78076, 390.74707, -123.04688
6838, 0.19092, 0.14185, 1.26257, -21.54541, 401.85547, -125.36621
6846, 0.19092, 0.11804, 1.08533, 1.70898, 391.17432, -121.45996
6857, 0.22729, 0.10449, 0.92395, 31.43311, 369.93408, -110.77881
6865, 0.30933, 0.07275, 0.75183, 61.64551, 346.80176, -97.59521
6873, 0.34326, 0.02576, 0.53967, 89.05029, 324.95117, -86.54785
6882, 0.37061, 0.00281, 0.32776, 110.65674, 301.39160, -75.19531
6891, 0.39783, -0.04370, 0.08557, 123.10791, 273.43750, -62.19482
6900, 0.43420, -0.11609, -0.17493, 125.18311, 242.24854, -46.08154
6909, 0.45630, -0.17273, -0.38208, 113.52539, 208.98437, -28.19824
6918, 0.50342, -0.16028, -0.42310, 90.02686, 180.66406, -9.09424
6927, 0.54504, -0.12378, -0.41089, 61.21826, 161.80420, 4.88281
6936, 0.58813, -0.08899, -0.34790, 33.38623, 151.85547, 13.36670
6945, 0.60937, -0.05872, -0.29260, 12.08496, 146.17920, 16.96777
6954, 0.64246, -0.05176, -0.28516, 3.11279, 136.41357, 18.73779
6963, 0.67163, -0.06213, -0.31348, 3.84521, 118.46924, 19.65332
6972, 0.67773, -0.05493, -0.33118, 9.58252, 93.07861, 19.83643
6981, 0.69177, -0.05432, -0.33276, 18.18848, 64.69727, 20.26367
6989, 0.68359, -0.06567, -0.35681, 29.72412, 36.56006, 20.38574
6997, 0.67273, -0.06653, -0.39185, 40.64941, 8.91113, 21.11816
7005, 0.68054, -0.05518, -0.40320, 50.29297, -17.94434, 23.25439
7013, 0.69128, -0.04651, -0.41309, 58.71582, -45.41016, 25.69580
7021, 0.70105, -0.06165, -0.43860, 64.45313, -72.26563, 27.28271
7029, 0.71936, -0.07507, -0.47131, 66.04004, -98.99902, 28.62549
7037, 0.71936, -0.01257, -0.47400, 62.98828, -126.15967, 29.54102
7045, 0.69641, -0.01794, -0.47400, 47.36328, -156.18896, 32.34863
7053, 0.71277, 0.00244, -0.44092, 56.09131, -156.18896, 32.34863
7061, 0.70532, 0.02295, -0.43091, 45.77637, -185.24170, 32.34863
7069, 0.69641, 0.04272, -0.37439, 30.63965, -208.00781, 30.45654
7077, 0.66443, 0.05444, -0.30225, 14.22119, -229.30908, 28.74756
7085, 0.63147, 0.05103, -0.20667, 0.73242, -250.42725, 27.89307
7093, 0.56812, 0.03174, -0.11572, -8.54492, -271.36230, 27.77100
7101, 0.48206, 0.02698, -0.00256, -15.31982, -294.37256, 29.35791
7109, 0.38672, 0.00879, 0.11414, -18.67676, -317.19971, 34.91211
7117, 0.32104, -0.02661, 0.24927, -19.04297, -337.03613, 44.67773
7125, 0.26697, 0.01794, 0.45959, -18.37158, -354.79736, 54.80957
7133, 0.30212, 0.12158, 0.72095, -13.18359, -363.95264, 61.58447
7141, 0.30212, 0.12158, 0.72095, -0.73242, -358.76465, 61.21826
7149, 0.40784, 0.15527, 0.92908, -0.73242, -358.76465, 51.26953
7157, 0.44751, 0.15784, 1.09106, 17.70020, -340.02686, 51.26953
7165, 0.46167, 0.15356, 1.19067, 40.83252, -311.21826, 37.29248
7173, 0.43701, 0.14343, 1.16211, 67.19971, -279.47998, 23.68164
7181, 0.38464, 0.12073, 1.05994, 89.29443, -252.56348, 12.45117
7189, 0.30261, 0.06372, 0.95496, 102.35596, -234.49707, 5.79834
7197, 0.19458, -0.01196, 0.88123, 103.45459, -223.20557, 2.99072
7205, 0.11829, -0.09888, 0.89246, 94.60449, -212.03613, 4.88281
7213, 0.05090, -0.16907, 0.93701, 79.22363, -197.75391, 11.77979
7221, 0.01587, -0.20337, 0.97888, 62.13379, -179.19922, 20.62988
7229, 0.00183, -0.19873, 1.06812, 45.95947, -160.40039, 27.16064
7237, 0.00183, -0.17810, 1.16650, 35.03418, -144.22607, 30.09033
7245, 0.01538, -0.17810, 1.16650, 30.82275, -129.57764, 28.19824
7254, 0.05481, -0.15747, 1.21558, 32.59277, -115.96680, 21.05713
7263, 0.07336, -0.12341, 1.15320, 35.27832, -105.71289, 9.82666
7272, 0.04626, -0.14392, 1.10413, 36.01074, -98.08350, -1.77002
7281, 0.00610, -0.16663, 1.05896, 32.40967, -91.00342, -10.49805
7290, -0.03894, -0.19202, 1.04297, 24.59717, -83.98438, -16.72363
7299, -0.07861, -0.21130, 1.04846, 13.12256, -76.47705, -20.20264
7308, -0.10864, -0.22510, 1.03772, 0.97656, -67.32178, -19.53125
7317, -0.09375, -0.23267, 1.06799, -11.84082, -57.55615, -16.11328
7326, -0.10352, -0.21045, 1.08411, -21.78955, -49.19434, -12.14600
7335, -0.09827, -0.21179, 1.07983, -25.75684, -45.10498, -7.87354
7344, -0.09045, -0.23108, 1.08533, -26.79443, -44.92188, -3.66211
7353, -0.09851, -0.23779, 1.11938, -26.48926, -43.09082, -0.18311
7363, -0.10608, -0.23047, 1.12781, -24.29199, -38.94043, 4.27246
7372, -0.09741, -0.22302, 1.13489, -20.01953, -35.46143, 8.72803
7381, -0.08093, -0.21448, 1.16541, -15.68604, -33.20313, 10.74219
7390, -0.07861, -0.21338, 1.18530, -12.14600, -28.44238, 10.55908
7399, -0.08203, -0.19934, 1.20593, -11.10840, -19.71436, 8.72803
7408, -0.09058, -0.18665, 1.21985, -12.39014, -8.78906, 5.73730
7417, -0.11230, -0.18262, 1.22253, -15.86914, 1.83105, 1.52588
7426, -0.14490, -0.18567, 1.25928, -22.64404, 13.30566, -2.50244
7435, -0.13684, -0.19482, 1.36316, -34.30176, 30.63965, -6.34766
7444, -0.11182, -0.17664, 1.49011, -47.48535, 59.02100, -11.04736
7453, -0.06860, -0.13867, 1.60010, -61.03516, 96.86279, -35.15625
7461, -0.05652, -0.11536, 1.65112, -74.82910, 139.64844, -32.65381
7470, -0.07385, -0.07397, 1.69043, -87.46338, 182.25098, -47.36328
7479, -0.07153, -0.00977, 1.73242, -98.02246, 220.64209, -61.58447
7487, -0.05005, 0.01208, 1.75098, -103.33252, 255.24902, -73.54736
7496, 0.00122, 0.06274, 1.77759, -107.36084, 290.40527, -82.70264
7505, 0.18835, 0.18665, 1.90076, -110.96191, 328.12500, -94.97070
7513, 0.24585, 0.25903, 1.92480, -109.19189, 368.95752, -118.34717
7521, 0.23853, 0.24243, 1.88318, -103.63770, 410.58350, -144.47021
7530, 0.18628, 0.19971, 1.77612, -92.95654, 445.37354, -166.25977
7538, 0.15222, 0.17786, 1.65430, -69.27490, 456.42090, -177.61230
7546, 0.16211, 0.17798, 1.56104, -29.29688, 432.49512, -174.80469
7555, 0.18896, 0.16797, 1.41479, 27.58789, 390.38086, -158.08105
7564, 0.31970, 0.14319, 1.25330, 92.46826, 346.98486, -135.49805
7573, 0.42712, 0.11255, 0.95996, 154.66309, 309.38721, -118.10303
7582, 0.46838, 0.03760, 0.55286, 198.79150, 275.57373, -107.60498
7591, 0.49414, -0.07996, 0.09119, 213.01270, 241.63818, -96.61865
7599, 0.51733, -0.24414, -0.30273, 198.36426, 208.12988, -79.46777
7608, 0.51526, -0.36292, -0.50354, 156.49414, 178.71094, -58.41064
7616, 0.48682, -0.37219, -0.41052, 102.23389, 158.87451, -34.17969
7624, 0.50220, -0.31299, -0.17786, 56.33545, 147.46094, -9.88770
7632, 0.53845, -0.25391, -0.05945, 33.81348, 138.36670, 10.31494
7640, 0.59143, -0.22314, -0.09290, 31.73828, 124.45068, 25.45166
7649, 0.62122, -0.18823, -0.13770, 36.68213, 104.00391, 35.58350
7658, 0.63928, -0.14539, -0.13330, 39.67285, 81.84814, 40.22217
7667, 0.65625, -0.11829, -0.13818, 41.01563, 63.65967, 40.22217
7676, 0.65332, -0.11121, -0.18677, 41.56494, 48.58398, 37.65869
7685, 0.65686, -0.09277, -0.20300, 38.75732, 35.03418, 34.79004
7694, 0.68408, -0.07788, -0.19348, 33.08105, 26.12305, 32.77588
7703, 0.69714, -0.06323, -0.20837, 28.25928, 18.24951, 29.11377
7712, 0.71082, -0.05237, -0.23035, 23.74268, 8.36182, 25.14648
7721, 0.72632, -0.04016, -0.23279, 20.01953, -3.96729, 22.52197
7730, 0.75061, -0.02844, -0.20789, 18.31055, -19.04297, 20.32471
7738, 0.75854, -0.02356, -0.17944, 18.55469, -35.94971, 17.02881
7747, 0.75537, -0.03857, -0.16748, 20.69092, -53.46680, 13.36670
7756, 0.73962, -0.06287, -0.17090, 23.55957, -71.71631, 11.71875
7765, 0.71692, -0.08875, -0.16418, 25.87891, -91.18652, 12.26807
7774, 0.70667, -0.11658, -0.12268, 27.77100, -112.73193, 15.25879
7783, 0.67566, -0.10986, -0.07605, 31.92139, -135.43701, 19.59229
7792, 0.63232, -0.09302, -0.02527, 37.23145, -158.81348, 30.88379
7801, 0.61987, -0.09741, 0.01392, 40.40527, -196.65527, 35.94971
7809, 0.59167, -0.10767, 0.02905, 39.36768, -196.65527, 35.94971
7818, 0.56042, -0.10327, 0.07043, 32.10449, -210.02197, 42.54150
7826, 0.54602, -0.06567, 0.14819, 17.27295, -219.29932, 42.54150
7835, 0.56360, -0.03796, 0.19897, -3.05176, -221.80176, 42.66357
7844, 0.58191, -0.01904, 0.23340, -25.93994, -218.38379, 39.67285
7853, 0.57861, -0.00354, 0.28528, -48.15674, -219.29932, 25.57373
7862, 0.55579, -0.00012, 0.35962, -75.01221, -227.05078, 17.82227
7871, 0.49023, 0.01245, 0.45483, -75.56152, -237.73193, 13.06152
7880, 0.39832, -0.01758, 0.70496, -67.50488, -249.08447, 13.18359
7889, 0.30115, -0.05603, 0.79517, -52.24609, -256.34766, 17.39502
7897, 0.30115, -0.05603, 0.79517, -33.69141, -259.64355, 22.94922
7905, 0.27173, -0.06494, 0.88379, -33.69141, -259.64355, 28.86963
7914, 0.24524, -0.05884, 0.94971, 1.83105, -255.73730, 34.79004
7924, 0.28137, -0.04089, 1.05566, 19.47021, -245.91064, 37.59766
7933, 0.31445, -0.00684, 1.11206, 31.67725, -229.49219, 35.03418
7943, 0.33142, 0.02136, 1.12561, 41.44287, -207.39746, 27.28271
7952, 0.32214, 0.03589, 1.07849, 49.37744, -185.79102, 16.41846
7960, 0.28442, 0.02917, 1.00793, 52.49023, -169.92187, 4.39453
7969, 0.22302, 0.00623, 0.97278, 49.25537, -159.30176, -5.98145
7978, 0.16113, -0.04297, 0.95886, 41.25977, -152.09961, -13.67187
7987, 0.08557, -0.12183, 0.98608, 29.41895, -147.03369, -18.79883
7995, 0.01172, -0.17847, 1.02954, 16.72363, -138.36670, -19.77539
8003, -0.02502, -0.20154, 1.07263, 7.32422, -124.45068, -14.58740
8011, -0.03979, -0.20874, 1.09216, 2.74658, -112.54883, -6.34766
8019, -0.03979, -0.21606, 1.08960, 2.86865, -106.38428, 1.83105
8028, -0.03601, -0.19800, 1.12329, 5.43213, -103.82080, 8.36182
8036, -0.03601, -0.19800, 1.12329, 9.58252, -102.90527, 11.41357
8044, -0.02356, -0.18433, 1.17053, 9.58252, -102.90527, 10.62012
8052, -0.01648, -0.16467, 1.19116, 15.25879, -99.06006, 10.62012
8060, 0.01392, -0.16089, 1.14746, 19.34814, -92.16309, 7.20215
8069, 0.01099, -0.13770, 1.15906, 19.22607, -84.35059, 0.85449
8077, -0.01025, -0.14771, 1.14880, 16.96777, -75.56152, -6.28662
8085, -0.03650, -0.16272, 1.13550, 11.65771, -65.79590, -12.51221
8093, -0.07153, -0.17322, 1.13721, 2.13623, -54.26025, -18.00537
8101, -0.12000, -0.17322, 1.13843, -7.93457, -43.70117, -21.42334
8110, -0.14709, -0.18835, 1.15820, -16.60156, -36.62109, -21.24023
8119, -0.16602, -0.20886, 1.20251, -22.33887, -32.28760, -18.67676
8128, -0.17920, -0.22290, 1.24731, -24.53613, -28.50342, -14.70947
8136, -0.17993, -0.22815, 1.27136, -24.41406, -23.25439, -10.00977
8144, -0.15576, -0.21655, 1.29956, -23.07129, -16.35742, -5.73730
8152, -0.13354, -0.19739, 1.33008, -20.81299, -9.52148, -4.02832
8160, -0.13379, -0.19250, 1.36023, -18.18848, -1.22070, -5.61523
8168, -0.15344, -0.18652, 1.38000, -15.44189, 10.13184, -8.17871
8177, -0.18506, -0.18616, 1.37769, -13.18359, 22.64404, -9.27734
8185, -0.19861, -0.19592, 1.39233, -12.14600, 33.63037, -8.36182
8193, -0.18201, -0.19067, 1.44202, -12.20703, 45.10498, -6.46973
8201, -0.18201, -0.19067, 1.44202, -11.10840, 61.21826, -5.24902
8209, -0.14795, -0.18494, 1.48706, -11.10840, 61.21826, -5.55420
8221, -0.14551, -0.15845, 1.49915, -7.50732, 98.63281, -5.98145
8229, -0.11572, -0.14478, 1.45959, -6.10352, 116.51611, -6.22559
8237, -0.10913, -0.14050, 1.37976, -6.95801, 131.16455, -6.22559
8245, -0.07788, -0.13403, 1.32556, -10.74219, 142.15088, -5.73730
8253, -0.09106, -0.13403, 1.32556, -16.05225, 149.16992, -4.76074
8262, -0.04578, -0.09460, 1.28967, -24.16992, 156.92139, -5.67627
8271, 0.05151, -0.04028, 1.35229, -33.56934, 169.92187, -10.86426
8280, 0.18225, -0.00977, 1.41821, -40.89355, 189.57520, -20.56885
8289, 0.21350, -0.02478, 1.47375, -44.37256, 217.52930, -34.24072
8298, 0.16943, -0.00244, 1.48303, -42.41943, 247.00928, -46.99707
8307, 0.15808, -0.02869, 1.44519, -39.00146, 275.45166, -55.23682
8316, 0.12561, -0.08435, 1.34192, -37.23145, 301.51367, -58.89893
8325, 0.13245, -0.06970, 1.28455, -37.84180, 322.02148, -58.95996
8334, 0.19177, -0.05432, 1.21277, -42.17529, 339.11133, -57.67822
8343, 0.21472, -0.05164, 1.14673, -46.08154, 353.94287, -57.06787
8352, 0.28564, -0.01611, 1.14160, -45.59326, 364.13574, -56.51855
8361, 0.38586, 0.05603, 1.09558, -33.20313, 368.04199, -58.59375
8369, 0.40564, 0.07507, 0.93286, -13.12256, 363.22021, -66.46729
8378, 0.42480, 0.04529, 0.75159, 10.55908, 352.29492, -73.66943
8387, 0.44067, 0.01794, 0.56763, 36.68213, 327.94189, -75.50049
8396, 0.46594, -0.02869, 0.34741, 65.06348, 287.90283, -70.67871
8405, 0.48035, -0.07715, 0.08667, 90.27100, 243.34717, -58.83789
8414, 0.51538, -0.13977, -0.14246, 100.52490, 201.17187, -43.09082
8423, 0.51880, -0.14246, -0.25354, 93.20068, 168.21289, -26.12305
8432, 0.53015, -0.09204, -0.19568, 72.38770, 151.73340, -11.90186
8441, 0.58899, -0.09509, -0.19263, 47.91260, 152.89307, -3.54004
8450, 0.63831, -0.12402, -0.27161, 24.90234, 155.02930, -1.09863
8459, 0.64429, -0.12439, -0.29663, 5.43213, 147.21680, 0.85449
8468, 0.64209, -0.09058, -0.20825, -7.50732, 131.16455, 3.96729
8477, 0.64734, -0.07153, -0.13965, -9.94873, 113.40332, 6.77490
8486, 0.66223, -0.07104, -0.14807, -3.96729, 95.15381, 8.54492
8495, 0.71069, -0.09521, -0.20605, 5.67627, 75.01221, 8.97217
8504, 0.72131, -0.10266, -0.27124, 15.07568, 50.10986, 7.08008
8513, 0.71008, -0.12146, -0.31238, 22.94922, 23.92578, 4.21143
8522, 0.67297, -0.12512, -0.31384, 28.93066, -17.39502, 4.69971
8530, 0.64380, -0.12622, -0.30115, 34.11865, -25.02441, 4.69971
8539, 0.65173, -0.12231, -0.30969, 36.56006, -44.18945, 8.42285
8547, 0.66919, -0.11267, -0.34741, 34.91211, -60.72998, 12.39014
8556, 0.71118, -0.09729, -0.37000, 26.67236, -77.08740, 14.83154
8565, 0.74854, -0.06848, -0.38049, 14.52637, -95.21484, 14.64844
8573, 0.72827, -0.00867, -0.30933, 1.95312, -115.41748, 11.53564
8582, 0.73218, -0.00085, -0.21838, -5.55420, -139.09912, 10.37598
8591, 0.69543, 0.01685, -0.14734, -7.50732, -164.24561, 8.30078
8600, 0.64673, 0.01184, -0.11023, -6.46973, -189.14795, 8.78906
8609, 0.62244, -0.03931, -0.07190, -5.73730, -243.83545, 16.60156
8618, 0.58362, -0.05835, 0.02283, -14.95361, -262.57324, 19.71436
8627, 0.52258, -0.06177, 0.21973, -21.24023, -279.96826, 23.43750
8636, 0.37744, -0.03479, 0.33081, -27.34375, -293.76221, 28.38135
8645, 0.37244, -0.01208, 0.41699, -33.50830, -303.22266, 33.56934
8653, 0.37244, -0.01208, 0.41699, -39.61182, -307.92236, 35.15625
8662, 0.37415, 0.07080, 0.68665, -41.07666, -309.63135, 32.71484
8670, 0.39783, 0.07080, 0.68665, -34.66797, -309.44824, 25.26855
8679, 0.39539, 0.11707, 0.82288, -22.46094, -305.84717, 12.93945
8688, 0.39734, 0.09119, 1.01831, -5.37109, -296.08154, 0.61035
8697, 0.27930, 0.03711, 1.04492, 12.69531, -282.04346, -6.95801
8706, 0.21594, -0.01074, 1.04932, 28.19824, -265.93018, -8.66699
8715, 0.16614, -0.06494, 1.02197, 39.24561, -249.32861, -5.37109
8724, 0.10901, -0.10767, 0.99463, 44.49463, -233.45947, 0.48828
8732, 0.03796, -0.14771, 0.98865, 44.25049, -219.97070, 7.99561
8741, -0.01611, -0.17822, 0.98938, 40.16113, -208.12988, 17.02881
8750, -0.03320, -0.20459, 1.01587, 34.54590, -197.32666, 26.42822
8759, -0.04602, -0.20471, 1.07153, 30.76172, -187.31689, 34.85107
8768, -0.02490, -0.19995, 1.13672, 28.74756, -177.00195, 40.10010
8777, -0.00061, -0.17615, 1.16968, 29.72412, -164.36768, 40.58838
8786, 0.00574, -0.15247, 1.15186, 32.83691, -151.42822, 36.98730
8795, 0.00391, -0.15063, 1.13184, 34.54590, -140.56396, 30.27344
8804, -0.01746, -0.15540, 1.11353, 32.16553, -130.98145, 21.66748
8813, -0.05322, -0.16589, 1.09229, 26.36719, -119.99512, 14.34326
8821, -0.08557, -0.18237, 1.05896, 16.66260, -108.52051, 9.88770
8830, -0.10901, -0.18530, 1.06897, 4.21143, -97.53418, 6.89697
8839, -0.13538, -0.20605, 1.08203, -8.66699, -86.85303, 6.10352
8848, -0.14160, -0.21155, 1.11682, -20.32471, -75.74463, 6.40869
8857, -0.14758, -0.20142, 1.16223, -29.05273, -65.06348, 6.40869
8865, -0.15747, -0.19751, 1.20654, -32.47070, -56.27441, 7.08008
8874, -0.17261, -0.17542, 1.22351, -31.25000, -49.25537, 8.54492
8883, -0.14795, -0.15881, 1.24695, -28.13721, -44.06738, 10.37598
8892, -0.11743, -0.13843, 1.28564, -23.55957, -38.94043, 10.31494
8901, -0.10376, -0.11902, 1.31567, -18.12744, -31.67725, 7.56836
8910, -0.09851, -0.12073, 1.33643, -12.57324, -22.58301, 3.05176
8919, -0.11951, -0.12073, 1.32739, -8.30078, -11.29150, -1.89209
8928, -0.15198, -0.12268, 1.30688, -6.28662, -0.42725, -6.22559
8937, -0.17944, -0.12561, 1.32629, -6.95801, 9.27734, -9.76562
8946, -0.18237, -0.14136, 1.37097, -9.21631, 19.89746, -11.23047
8955, -0.18579, -0.15259, 1.42554, -12.02393, 34.05762, -11.53564
8964, -0.18677, -0.14832, 1.48560, -13.30566, 52.42920, -11.53564
8973, -0.17041, -0.14185, 1.51978, -13.06152, 74.76807, -12.57324
8982, -0.17346, -0.13879, 1.50903, -11.59668, 97.71729, -15.80811
8991, -0.19128, -0.13684, 1.47400, -11.16943, 117.91992, -20.69092
8999, -0.19006, -0.12585, 1.46057, -12.87842, 133.78906, -24.84131
9007, -0.15320, -0.10413, 1.46191, -16.60156, 147.58301, -28.13721
9015, -0.08704, -0.08154, 1.47595, -19.65332, 160.46143, -31.98242
9023, -0.01111, -0.07166, 1.46448, -25.45166, 176.94092, -37.84180
9031, -0.00305, -0.08020, 1.45813, -34.24072, 198.85254, -45.41016
9039, 0.01807, -0.07031, 1.47034, -44.49463, 221.49658, -53.40576
9047, 0.08533, -0.08899, 1.49597, -57.49512, 247.61963, -61.21826
9055, 0.11084, -0.07336, 1.53003, -69.58008, 279.66309, -69.94629
9063, 0.15833, 0.00183, 1.58887, -80.32227, 313.59863, -78.43018
9071, 0.20508, 0.03857, 1.60327, -83.61816, 348.26660, -87.15820
9079, 0.20508, 0.10107, 1.58704, -79.04053, 379.33350, -98.44971
9087, 0.25110, 0.09558, 1.58704, -63.41553, 403.86963, -110.77881
9095, 0.25269, 0.12585, 1.53918, -66.10107, 403.86963, -110.77881
9103, 0.26343, 0.16663, 1.49304, -42.60254, 414.61182, -121.88721
9112, 0.24548, 0.19849, 1.38879, -8.54492, 408.56934, -129.82178
9120, 0.24670, 0.16638, 1.19226, 32.22656, 393.49365, -132.38525
9128, 0.24939, 0.05139, 0.90845, 71.35010, 372.31445, -128.66211
9136, 0.25732, -0.03381, 0.59387, 104.73633, 339.47754, -116.45508
9144, 0.31726, -0.12659, 0.27246, 128.41797, 297.05811, -95.33691
9152, 0.39014, -0.23767, -0.06152, 139.52637, 251.95312, -67.87109
9161, 0.46301, -0.30713, -0.29065, 132.20215, 211.05957, -39.55078
9169, 0.51831, -0.31152, -0.38794, 109.13086, 178.64990, -14.52637
9177, 0.56152, -0.27478, -0.38159, 76.17188, 156.49414, 1.95312
9185, 0.61353, -0.23169, -0.30652, 44.37256, 141.60156, 11.96289
9193, 0.63696, -0.17822, -0.22485, 22.03369, 126.52588, 15.86914
9201, 0.65430, -0.13770, -0.18213, 11.84082, 109.61914, 16.05225
9209, 0.65430, -0.13770, -0.18213, 10.07080, 88.80615, 15.07568
9217, 0.67688, -0.12390, -0.20349, 10.07080, 88.80615, 13.79395
9225, 0.68896, -0.11780, -0.21863, 11.65771, 65.49072, 13.79395
9233, 0.68213, -0.08997, -0.18774, 12.93945, 43.02979, 11.35254
9241, 0.68542, -0.07642, -0.16553, 14.52637, 25.20752, 8.60596
9249, 0.69250, -0.07007, -0.18762, 16.35742, 11.65771, 6.46973
9257, 0.70142, -0.05396, -0.22839, 17.27295, -2.31934, 4.57764
9266, 0.70520, -0.05042, -0.24878, 17.88330, -18.61572, 3.60107
9275, 0.70752, -0.05786, -0.25342, 17.76123, -37.41455, 3.60107
9284, 0.71570, -0.07996, -0.24988, 16.17432, -55.48096, 2.56348
9293, 0.67822, -0.06421, -0.22009, 11.77979, -70.06836, 0.48828
9302, 0.68799, -0.07947, -0.19116, 7.81250, -84.59473, 2.19727
9310, 0.66748, -0.10364, -0.20691, 6.53076, -103.57666, 4.76074
9319, 0.63635, -0.12195, -0.16418, 6.16455, -124.51172, 9.39941
9328, 0.59778, -0.15210, -0.15125, 8.23975, -149.47510, 17.82227
9336, 0.55408, -0.16614, -0.14539, 10.49805, -179.44336, 28.68652
9345, 0.49634, -0.17920, -0.14771, 10.19287, -211.85303, 41.32080
9354, 0.45264, -0.17615, -0.09290, 3.66211, -243.53027, 54.38232
9363, 0.39746, -0.13147, 0.01221, -8.54492, -269.77539, 64.14795
9372, 0.37671, -0.02124, 0.17603, -23.86475, -284.72900, 70.86182
9381, 0.42700, 0.05603, 0.31018, -41.13770, -287.96387, 72.38770
9390, 0.48413, 0.09949, 0.45142, -55.78613, -282.28760, 67.01660
9398, 0.50574, 0.13184, 0.59949, -63.59863, -275.45166, 54.74854
9406, 0.47607, 0.13696, 0.73254, -61.58447, -269.83643, 38.02490
9415, 0.41455, 0.08875, 0.82068, -50.17090, -265.19775, 22.33887
9424, 0.30920, 0.03442, 0.88025, -33.20313, -260.55908, 12.63428
9432, 0.22083, -0.02771, 0.92603, -16.47949, -256.16455, 12.45117
9440, 0.15759, -0.08435, 0.94043, -2.74658, -250.67139, 21.60645
9448, 0.12781, -0.11304, 0.98169, 6.77490, -243.46924, 34.85107
9456, 0.12415, -0.09656, 1.03113, 13.42773, -232.05566, 48.03467
9464, 0.14746, -0.06494, 1.08032, 19.10400, -217.10205, 59.38721
9472, 0.21106, -0.00403, 1.10217, 25.02441, -199.64600, 66.65039
9481, 0.28015, 0.04700, 1.13696, 30.94482, -182.73926, 64.45313
9490, 0.28320, 0.08618, 1.16064, 38.14697, -167.72461, 52.36816
9498, 0.26550, 0.08459, 1.12976, 45.10498, -155.09033, 36.25488
9507, 0.22351, 0.04248, 1.08813, 49.43848, -145.62988, 19.16504
9516, 0.15076, -0.01965, 1.06445, 48.15674, -138.48877, 3.29590
9524, 0.08301, -0.08118, 1.08411, 41.01563, -129.57764, -8.17871
9533, 0.01196, -0.13525, 1.07227, 29.84619, -116.08887, -14.46533
9542, -0.03369, -0.16321, 1.05884, 16.90674, -101.13525, -15.62500
9551, -0.06116, -0.17798, 1.04761, 4.57764, -90.51514, -12.51221
9560, -0.07288, -0.18884, 1.06018, -4.69971, -85.20508, -8.17871
9569, -0.08154, -0.18494, 1.08032, -10.07080, -82.21436, -3.66211
9578, -0.07092, -0.18884, 1.10498, -11.35254, -79.34570, 1.09863
9590, -0.04687, -0.17175, 1.13232, -10.07080, -75.92773, 4.33350
9599, -0.03040, -0.14148, 1.14514, -6.65283, -71.04492, 4.76074
9608, -0.01489, -0.12439, 1.14551, -2.44141, -66.34521, -0.97656
9617, -0.02600, -0.10950, 1.13916, 1.46484, -56.82373, -3.90625
9626, -0.05029, -0.10388, 1.10779, 6.04248, -53.95508, -5.24902
9635, -0.06030, -0.10901, 1.08533, 5.12695, -52.06299, -5.06592
9644, -0.08350, -0.13489, 1.06689, 2.19727, -49.80469, -3.96729
9653, -0.07715, -0.14612, 1.06921, -1.83105, -46.26465, -2.44141
9662, -0.07019, -0.14307, 1.07288, -6.34766, -40.71045, -1.40381
9671, -0.07214, -0.13708, 1.08875, -9.21631, -35.64453, -1.34277
9680, -0.08411, -0.13953, 1.10181, -8.78906, -32.83691, -1.52588
9689, -0.09363, -0.14966, 1.11353, -6.71387, -30.82275, -1.52588
9698, -0.10083, -0.14868, 1.13269, -5.18799, -27.58789, -1.46484
9707, -0.11157, -0.14246, 1.16406, -4.63867, -22.76611, -1.95312
9716, -0.10852, -0.13904, 1.20361, -4.57764, -16.23535, -2.86865
9725, -0.11865, -0.13110, 1.23083, -3.96729, -7.26318, -4.69971
9734, -0.13806, -0.10962, 1.24219, -3.96729, 2.80762, -7.81250
9743, -0.14722, -0.10901, 1.25159, -5.79834, 13.91602, -11.10840
9752, -0.14844, -0.10596, 1.28748, -10.43701, 25.93994, -15.62500
9761, -0.15503, -0.10864, 1.34937, -17.08984, 41.56494, -21.60645
9770, -0.15662, -0.11084, 1.41541, -25.02441, 64.20898, -27.89307
9779, -0.12366, -0.08643, 1.48804, -34.79004, 94.90967, -34.36279
9788, -0.08008, -0.05957, 1.56030, -46.75293, 133.11768, -44.25049
9797, -0.04980, -0.01697, 1.62195, -58.22754, 177.30713, -57.49512
9806, -0.04749, 0.04065, 1.66919, -65.61279, 221.67969, -72.57080
9814, -0.02405, 0.11475, 1.71216, -67.50488, 262.81738, -86.79199
9823, -0.01514, 0.16809, 1.72070, -63.84277, 299.25537, -100.15869
9832, 0.05200, 0.16870, 1.75623, -57.31201, 331.17676, -118.28613
9841, -0.04944, 0.18286, 1.75574, -47.60742, 363.15918, -136.71875
9850, -0.02832, 0.23853, 1.79041, -37.35352, 393.85986, -146.54541
9860, 0.00867, 0.23499, 1.83655, -23.68164, 423.76709, -161.19385
9869, 0.02673, 0.21704, 1.81201, 32.04346, 445.06836, -164.79492
9878, 0.00122, 0.17688, 1.64124, 78.12500, 427.79541, -157.10449
9886, 0.01062, 0.08301, 1.38171, 78.12500, 427.79541, -125.85449
9894, 0.09192, -0.04724, 1.04285, 118.10303, 395.32471, -136.41357
9902, 0.19189, -0.16028, 0.68506, 150.51270, 345.03174, -107.05566
9911, 0.32007, -0.21765, 0.43164, 169.73877, 289.18457, -73.79150
9920, 0.44690, -0.26453, 0.23096, 173.40088, 243.16406, -44.00635
9929, 0.54272, -0.29956, 0.06873, 157.40967, 211.91406, -23.25439
9938, 0.60010, -0.35815, -0.01489, 129.69971, 194.51904, -10.98633
9947, 0.59949, -0.35339, -0.06799, 98.26660, 162.78076, 6.22559
9956, 0.59375, -0.33594, -0.03589, 52.12402, 135.92529, 19.53125
9965, 0.62634, -0.29419, 0.07080, 47.91260, 115.90576, 29.66309
9973, 0.65100, -0.27063, 0.09363, 47.91260, 100.28076, 35.27832
9982, 0.67517, -0.25916, 0.05481, 51.39160, 78.97949, 37.71973
9991, 0.66125, -0.22937, 0.02295, 53.71094, 64.75830, 38.94043
10000, 0.65820, -0.16638, -0.06836, 51.39160, 52.85645, 39.18457
10008, 0.67322, -0.17834, -0.06836, 51.39160, 42.78564, 37.29248
10016, 0.69092, -0.15979, -0.13086, 44.12842, 42.78564, 37.29248
10024, 0.69629, -0.13013, -0.18628, 33.50830, 35.15625, 34.05762
10032, 0.71216, -0.11780, -0.20496, 21.91162, 27.70996, 30.76172
10040, 0.70264, -0.09265, -0.20667, 12.20703, 18.49365, 26.73340
10048, 0.71533, -0.06396, -0.21411, 7.20215, 6.71387, 24.23096
10056, 0.74951, -0.05481, -0.22485, 5.18799, -9.03320, 22.52197
10064, 0.76990, -0.04358, -0.21924, 5.06592, -27.58789, 18.67676
10072, 0.75977, -0.01746, -0.22083, 6.95801, -47.60742, 12.57324
10080, 0.77002, -0.05591, -0.23279, 11.41357, -69.82422, 7.20215
10088, 0.72949, -0.05164, -0.22839, 15.93018, -94.17725, 2.01416
10096, 0.67651, -0.07080, -0.24805, 21.11816, -120.17822, -0.30518
10104, 0.67651, -0.07080, -0.24805, 23.49854, -148.49854, 2.56348
10112, 0.64185, -0.11731, -0.28979, 23.49854, -148.49854, 7.69043
10120, 0.60583, -0.14600, -0.28870, 18.43262, -177.18506, 7.69043
10128, 0.54468, -0.14575, -0.23657, 6.95801, -202.39258, 12.75635
10136, 0.50000, -0.12561, -0.16370, -7.38525, -221.55762, 18.79883
10144, 0.47961, -0.11340, -0.11267, -23.80371, -237.36572, 25.08545
10152, 0.44287, -0.06360, -0.02856, -41.87012, -248.59619, 28.99170
10160, 0.42224, -0.02649, 0.04297, -60.18066, -256.40869, 31.12793
10168, 0.40149, -0.01343, 0.09900, -78.97949, -264.95361, 32.34863
10176, 0.38538, 0.03455, 0.25818, -95.58105, -274.90234, 30.45654
10184, 0.39124, 0.08594, 0.47681, -105.10254, -282.83691, 25.14648
10192, 0.37158, 0.11414, 0.66443, -103.33252, -286.43799, 16.60156
10200, 0.37158, 0.11084, 0.81372, -89.66064, -285.27832, 6.77490
10208, 0.35547, 0.11084, 0.81372, -68.05420, -281.12793, -0.67139
10216, 0.27539, 0.09021, 0.88977, -68.05420, -281.12793, -0.67139
10224, 0.20581, 0.03430, 0.92847, -45.53223, -275.69580, -3.47900
10233, 0.14417, -0.03918, 0.93579, -26.48926, -269.40918, 0.06104
10242, 0.10840, -0.07446, 0.96069, -12.93945, -261.47461, 10.07080
10250, 0.11133, -0.08679, 1.01782, -4.45557, -249.51172, 22.39990
10258, 0.12012, -0.04761, 1.07153, 2.62451, -232.17773, 34.17969
10266, 0.16211, -0.00989, 1.09241, 10.13184, -214.47754, 41.44287
10275, 0.17297, 0.00891, 1.09473, 18.37158, -200.37842, 41.01563
10284, 0.14514, 0.02673, 1.11584, 26.06201, -188.96484, 34.42383
10292, 0.10938, -0.01025, 1.12964, 31.00586, -179.44336, 26.36719
10301, 0.04761, -0.06421, 1.12378, 32.89795, -168.70117, 19.28711
10310, 0.00342, -0.09595, 1.13074, 29.72412, -155.51758, 14.28223
10319, -0.05493, -0.11707, 1.14246, 23.25439, -140.44189, 10.43701
10328, -0.09363, -0.13477, 1.13428, 14.89258, -127.38037, 8.30078
10337, -0.10474, -0.13745, 1.15356, 6.04248, -115.84473, 7.56836
10346, -0.09985, -0.16614, 1.17737, -1.46484, -104.85840, 5.79834
10355, -0.11230, -0.12463, 1.18457, -7.01904, -90.75928, 2.99072
10364, -0.12439, -0.12549, 1.15112, -11.71875, -77.45361, -2.68555
10373, -0.12927, -0.11255, 1.14990, -30.21240, -65.79590, -5.37109
10382, -0.12756, -0.12402, 1.17334, -16.84570, -58.59375, -7.14111
10391, -0.14673, -0.12146, 1.17725, -16.11328, -51.81885, -8.11768
10400, -0.16541, -0.12952, 1.19153, -15.13672, -47.18018, -8.36182
10409, -0.16858, -0.13257, 1.20044, -13.91602, -42.84668, -8.17871
10418, -0.16931, -0.12927, 1.21533, -12.81738, -37.17041, -7.50732
10427, -0.17358, -0.12817, 1.23132, -11.77979, -30.70068, -6.46973
10437, -0.17859, -0.12683, 1.22729, -9.70459, -24.04785, -4.94385
10446, -0.17493, -0.12842, 1.22253, -7.62939, -18.31055, -3.05176
10455, -0.16724, -0.12952, 1.21167, -5.49316, -12.81738, -1.40381
10464, -0.18066, -0.11499, 1.17053, -4.39453, -7.26318, -0.61035
10473, -0.17371, -0.10474, 1.16968, -4.82178, -3.96729, -0.24414
10483, -0.13660, -0.09570, 1.21558, -7.01904, -1.46484, -1.40381
10492, -0.13513, -0.08142, 1.24500, -8.48389, 4.69971, -4.94385
10501, -0.14246, -0.06555, 1.27332, -10.19287, 13.91602, -10.31494
10510, -0.13367, -0.05762, 1.31213, -13.06152, 24.84131, -16.72363
10519, -0.12488, -0.07764, 1.37048, -18.67676, 40.46631, -24.84131
10528, -0.12195, -0.08435, 1.47668, -27.46582, 66.28418, -35.03418
10537, -0.12646, -0.08594, 1.56299, -37.41455, 102.84424, -45.83740
10546, -0.15112, -0.08252, 1.59436, -47.91260, 144.22607, -56.21338
10555, -0.17053, -0.04919, 1.62085, -57.67822, 184.87549, -64.63623
10563, -0.16785, -0.01624, 1.64282, -64.27002, 221.31348, -69.82422
10572, -0.13013, 0.07056, 1.67493, -63.17139, 249.26758, -72.57080
10581, -0.04736, 0.15308, 1.68079, -54.07715, 268.49365, -75.19531
10590, 0.12683, 0.21509, 1.73657, -36.31592, 300.17090, -100.21973
10599, 0.13379, 0.22693, 1.70068, 15.38086, 321.22803, -118.10303
10607, 0.06750, 0.23889, 1.62915, 15.38086, 321.22803, -118.10303
10615, 0.05640, 0.24036, 1.60767, 37.10938, 343.93311, -130.79834
10623, 0.08362, 0.22522, 1.55103, 57.12891, 365.78369, -138.73291
10631, 0.05811, 0.17444, 1.44763, 77.20947, 379.69971, -145.50781
10640, 0.05652, 0.14221, 1.32373, 97.53418, 384.39941, -147.82715
10648, 0.05786, 0.05115, 1.08765, 113.40332, 381.46973, -144.89746
10657, 0.07190, -0.08923, 0.80225, 118.95752, 371.09375, -137.02393
10666, 0.13599, -0.15271, 0.61230, 112.36572, 348.99902, -119.38477
10675, 0.24683, -0.24963, 0.43274, 98.57178, 322.81494, -96.74072
10684, 0.29456, -0.36230, 0.27136, 86.18164, 297.42432, -74.15771
10693, 0.36816, -0.41968, 0.16418, 74.03564, 273.55957, -46.69189
10702, 0.42773, -0.44495, 0.04456, 62.31689, 247.07031, -19.22607
10711, 0.51965, -0.38318, 0.04456, 48.76709, 217.77344, 5.00488
10719, 0.61536, -0.27393, 0.13013, 37.53662, 192.74902, 22.76611
10727, 0.70325, -0.19946, 0.13818, 34.05762, 174.25537, 28.62549
10736, 0.77271, -0.23437, 0.00671, 34.11865, 156.86035, 24.65820
10745, 0.76721, -0.25830, -0.07471, 31.18896, 136.23047, 17.88330
10754, 0.72815, -0.24646, -0.07007, 25.57373, 115.23438, 12.69531
10763, 0.69714, -0.23132, -0.07532, 23.37646, 95.76416, 12.08496
10772, 0.69568, -0.24023, -0.11707, 23.74268, 77.81982, 15.19775
10780, 0.66382, -0.23047, -0.14172, 24.53613, 60.30273, 19.77539
10789, 0.70312, -0.20605, -0.18799, 26.30615, 42.41943, 24.84131
10797, 0.73608, -0.15918, -0.21057, 28.93066, 23.86475, 27.28271
10805, 0.76111, -0.10193, -0.22266, 29.96826, 4.33350, 24.16992
10814, 0.78137, -0.08972, -0.23621, 30.88379, -14.09912, 17.39502
10823, 0.75745, -0.09949, -0.28857, 31.43311, -34.85107, 8.42285
10831, 0.73315, -0.12646, -0.31201, 28.44238, -55.48096, 1.34277
10839, 0.67725, -0.13416, -0.29041, 24.29199, -76.90430, -1.83105
10847, 0.64539, -0.13855, -0.27588, 21.78955, -99.24316, -0.30518
10856, 0.64539, -0.13867, -0.24500, 18.37158, -119.14063, 3.78418
10864, 0.62891, -0.13086, -0.22974, 15.86914, -137.45117, 7.26318
10873, 0.63025, -0.16162, -0.21155, 12.87842, -155.45654, 12.51221
10882, 0.60449, -0.18579, -0.20874, 10.49805, -174.19434, 17.39502
10891, 0.58276, -0.18286, -0.17773, 6.53076, -193.90869, 22.46094
10899, 0.54700, -0.16223, -0.12891, 1.09863, -214.47754, 28.13721
10908, 0.52759, -0.11011, -0.08398, -6.34766, -234.06982, 33.26416
10916, 0.53857, -0.08191, -0.05164, -16.47949, -252.80762, 36.62109
10925, 0.51587, -0.05884, -0.00830, -28.80859, -270.14160, 36.92627
10934, 0.46143, -0.02039, 0.06848, -42.23633, -287.29248, 34.91211
10943, 0.37549, 0.02637, 0.15686, -52.97852, -304.62646, 32.34863
10952, 0.31848, 0.05273, 0.32849, -59.44824, -324.52393, 30.57861
10961, 0.25720, 0.04749, 0.51392, -58.95996, -342.28516, 29.05273
10970, 0.21863, 0.03723, 0.69946, -49.80469, -352.60010, 27.64893
10979, 0.16064, 0.01465, 0.84253, -32.16553, -353.51562, 26.55029
10988, 0.09497, -0.05945, 0.92004, -10.80322, -347.83936, 27.70996
10997, 0.02576, -0.14966, 0.95630, 7.75146, -336.42578, 34.05762
11006, -0.02478, -0.19690, 1.00317, 19.34814, -317.26074, 44.37256
11014, -0.02197, -0.18933, 1.04419, 24.35303, -292.35840, 56.70166
11022, 0.05420, -0.13953, 1.07935, 27.16064, -266.17432, 65.18555
11030, 0.06116, -0.08337, 1.05029, 31.06689, -239.92920, 63.96484
11038, 0.07739, -0.06665, 1.02283, 33.99658, -221.19141, 55.84717
11046, 0.03284, -0.08948, 0.98596, 33.26416, -206.78711, 44.31152
11054, -0.04419, -0.12256, 0.99353, 25.26855, -191.83350, 31.92139
11062, -0.11279, -0.15015, 1.02209, 9.46045, -172.97363, 22.52197
11070, -0.15405, -0.16565, 1.08313, -9.46045, -149.96338, 16.54053
11078, -0.17969, -0.16614, 1.14038, -28.44238, -126.46484, 12.02393
11086, -0.17969, -0.16614, 1.17163, -42.96875, -105.28564, 8.23975
11094, -0.22656, -0.13916, 1.17004, -42.96875, -89.66064, 6.34766
11102, -0.25049, -0.13989, 1.22668, -51.57471, -90.39307, 6.34766
11110, -0.27234, -0.14514, 1.26331, -53.83301, -82.15332, 6.04248
11118, -0.25842, -0.14368, 1.30225, -52.36816, -73.85254, 7.44629
11126, -0.22961, -0.11377, 1.32947, -48.95020, -63.84277, 7.99561
11135, -0.18738, -0.07336, 1.34509, -43.09082, -53.89404, 5.85937
11143, -0.17798, -0.05493, 1.33557, -35.27832, -45.59326, 0.48828
11151, -0.19263, -0.07227, 1.33350, -27.34375, -39.00146, -6.40869
11159, -0.22510, -0.09558, 1.34839, -20.99609, -31.06689, -12.14600
11167, -0.26660, -0.11389, 1.35608, -14.83154, -21.05713, -15.31982
11175, -0.43787, -0.43494, 1.58899, -9.94873, -14.16016, -16.54053
11183, -0.93018, -0.30872, 2.62061, -42.23633, 0.12207, -32.83691
11192, -0.67224, -0.05188, 2.01318, -81.78711, 69.45801, -29.29688
11200, -0.06860, -0.10449, 1.28247, -64.20898, 95.64209, 8.78906
11208, 0.02515, -0.20227, 1.06189, -14.77051, 50.41504, 11.29150
11216, 0.01807, -0.20227, 1.06189, 5.67627, 30.51758, -1.46484
11224, -0.20667, -0.20007, 1.08752, 5.67627, 30.51758, -1.46484
11232, -0.19006, -0.21570, 1.05212, 17.08984, 34.66797, 7.38525
11241, -0.13086, -0.20190, 1.00098, 18.55469, 38.33008, 21.97266
11250, -0.05786, -0.12854, 1.01758, 13.18359, 43.82324, 27.70996
11258, -0.00537, -0.05640, 1.02393, 7.14111, 49.49951, 26.55029
11266, 0.04895, -0.00598, 1.06067, 1.22070, 55.29785, 20.20264
11274, 0.08167, 0.01233, 1.11780, -5.61523, 65.12451, 8.91113
11282, 0.07166, 0.00305, 1.17273, -16.35742, 83.43506, -4.94385
11290, 0.04565, -0.02051, 1.24670, -33.81348, 114.37988, -20.01953
11299, 0.04346, -0.04846, 1.31262, -58.22754, 158.38623, -33.20313
11308, 0.03333, -0.00903, 1.37317, -85.75439, 206.66504, -44.43359
11316, 0.01526, 0.04553, 1.42175, -109.37500, 250.91553, -53.16162
11325, 0.05591, 0.09778, 1.51123, -123.29102, 287.47559, -58.16650
11334, 0.17896, 0.17261, 1.62683, -123.04688, 316.77246, -64.75830
11342, 0.21399, 0.27087, 1.69080, -106.38428, 340.69824, -77.81982
11351, 0.21130, 0.30652, 1.69568, -78.43018, 361.45020, -92.46826
11360, 0.17224, 0.32349, 1.65210, -43.15186, 377.50244, -108.88672
11369, 0.13330, 0.28589, 1.57471, -1.89209, 385.80322, -120.84961
11378, 0.09253, 0.28735, 1.51550, 43.33496, 375.61035, -124.02344
11387, 0.11597, 0.27100, 1.39075, 95.64209, 353.21045, -116.08887
11396, 0.20862, 0.21875, 1.14368, 146.48437, 325.50049, -102.66113
11404, 0.28723, 0.16614, 0.88513, 181.15234, 298.27881, -89.96582
11412, 0.37598, 0.08716, 0.58545, 191.46729, 278.38135, -81.23779
11421, 0.44800, -0.05273, 0.23242, 177.12402, 262.81738, -73.05908
11430, 0.50684, -0.19690, -0.08777, 143.31055, 241.88232, -61.64551
11439, 0.56165, -0.28613, -0.22144, 98.38867, 217.59033, -44.49463
11448, 0.61401, -0.29199, -0.16309, 53.89404, 194.51904, -25.57373
11457, 0.63867, -0.21948, 0.01855, 22.21680, 172.60742, -9.70459
11466, 0.67468, -0.14172, 0.17480, 8.42285, 154.72412, 1.03760
11475, 0.74548, -0.11597, 0.15503, 12.32910, 140.01465, 6.10352
11484, 0.79285, -0.11853, 0.03394, 24.16992, 120.30029, 5.61523
11492, 0.83374, -0.12048, -0.05054, 34.48486, 94.72656, 2.07520
11501, 0.83057, -0.12927, -0.09326, 40.52734, 65.42969, -3.60107
11510, 0.77747, -0.13855, -0.12781, 43.15186, 39.12354, -9.88770
11519, 0.74622, -0.15430, -0.14832, 42.60254, 18.00537, -12.26807
11528, 0.73645, -0.17163, -0.15442, 40.89355, -1.15967, -11.04736
11537, 0.72363, -0.17346, -0.15186, 36.68213, -17.76123, -6.53076
11546, 0.71851, -0.16577, -0.17346, 30.57861, -50.17090, -3.41797
11555, 0.73865, -0.17371, -0.18738, 16.23535, -71.65527, -0.54932
11563, 0.71960, -0.18054, -0.15613, 16.23535, -71.65527, 3.29590
11571, 0.66943, -0.18823, -0.11011, 11.16943, -95.45898, 3.29590
11580, 0.64722, -0.19873, -0.04895, 8.23975, -117.91992, 10.31494
11589, 0.60767, -0.18677, -0.04138, 7.93457, -138.30566, 18.61572
11597, 0.57861, -0.19849, -0.06580, 5.55420, -160.64453, 30.09033
11605, 0.58362, -0.21570, -0.05884, -1.28174, -186.64551, 43.27393
11614, 0.55945, -0.18457, 0.00500, -13.30566, -210.02197, 51.26953
11622, 0.52454, -0.11462, 0.12122, -27.03857, -228.08838, 54.50439
11631, 0.50012, -0.04456, 0.23413, -41.13770, -240.66162, 54.68750
11640, 0.50146, -0.00647, 0.31616, -53.46680, -245.72754, 52.67334
11648, 0.48474, 0.01172, 0.44458, -62.98828, -244.38477, 48.82813
11656, 0.48694, 0.04065, 0.56299, -65.18555, -242.73682, 43.64014
11664, 0.49951, 0.07471, 0.68762, -59.99756, -240.84473, 37.04834
11673, 0.49121, 0.08240, 0.77747, -46.56982, -238.70850, 28.07617
11682, 0.45801, 0.06946, 0.85107, -27.46582, -236.93848, 18.18848
11691, 0.39270, 0.03735, 0.90393, -7.14111, -233.21533, 10.25391
11699, 0.31836, -0.00500, 0.92163, 12.08496, -227.05078, 6.10352
11707, 0.24426, -0.06067, 0.91589, 27.28271, -219.90967, 7.99561
11715, 0.17163, -0.10767, 0.91284, 35.09521, -210.75439, 13.06152
11723, 0.15051, -0.13562, 0.93054, 36.43799, -196.47217, 21.72852
11731, 0.14197, -0.14893, 0.91064, 32.71484, -178.58887, 31.55518
11739, 0.16418, -0.12183, 0.88269, 24.84131, -159.97314, 39.30664
11747, 0.22412, -0.07617, 0.89270, 14.03809, -143.98193, 41.99219
11755, 0.22412, -0.07617, 0.89270, 4.51660, -130.55420, 38.14697
11763, 0.26062, -0.02856, 0.90259, 4.51660, -114.92920, 28.56445
11771, 0.26208, 0.00391, 0.90564, -2.01416, -118.10303, 28.56445
11779, 0.25134, 0.00574, 0.94128, -5.73730, -110.65674, 16.54053
11787, 0.20972, -0.02625, 0.97778, -6.95801, -105.34668, 4.51660
11795, 0.15039, -0.05469, 1.01599, -6.95801, -97.35107, -4.63867
11803, 0.09985, -0.09265, 1.02405, -5.98145, -87.58545, -8.54492
11811, 0.04883, -0.09253, 0.98828, -4.27246, -80.01709, -8.78906
11819, 0.02295, -0.10706, 0.96985, -1.64795, -77.94189, -5.61523
11827, 0.00342, -0.13306, 0.95752, 1.03760, -80.01709, 0.18311
11835, -0.00024, -0.15356, 0.95789, 3.41797, -81.84814, 7.81250
11843, -0.00671, -0.15723, 0.96179, 4.76074, -81.60400, 15.80811
11851, 0.02454, -0.14697, 0.95081, 5.61523, -78.30811, 23.80371
11859, 0.00220, -0.14697, 0.95081, 5.24902, -75.50049, 29.66309
11867, 0.03528, -0.12195, 0.95569, 5.24902, -75.50049, 29.66309
11875, 0.08130, -0.09314, 0.98889, 3.35693, -73.24219, 29.66309
11883, 0.09741, -0.06201, 1.01819, 1.77002, -69.15283, 24.16992
11891, 0.10156, -0.04114, 1.02869, -0.54932, -62.98828, 15.80811
11899, 0.07922, -0.04114, 1.00464, -4.15039, -56.09131, 7.14111
11907, 0.06006, -0.04675, 1.00085, -10.80322, -49.49951, -0.24414
11915, 0.03613, -0.05090, 1.02527, -19.28711, -42.96875, -5.73730
11923, -0.00220, -0.04614, 1.04590, -26.18408, -37.17041, -8.72803
11931, -0.01990, -0.04346, 1.05701, -28.99170, -33.75244, -7.75146
11939, -0.03003, -0.05334, 1.07178, -28.80859, -33.99658, -4.88281
11947, -0.04114, -0.06006, 1.13074, -26.85547, -34.85107, -2.62451
11955, -0.04114, -0.06006, 1.18921, -22.76611, -33.02002, 0.12207
11964, -0.03040, -0.04089, 1.23291, -17.08984, -29.23584, 2.56348
11972, -0.03040, -0.04089, 1.23291, -10.68115, -23.86475, 2.92969
11981, -0.02673, -0.02454, 1.29602, -4.15039, -17.94434, 0.97656
11990, -0.01746, -0.01746, 1.31616, 1.89209, -11.16943, -2.62451
11999, -0.05090, -0.01721, 1.33398, 6.04248, -3.96729, -7.93457
12008, -0.07141, -0.00977, 1.37817, 7.26318, 4.82178, -13.97705
12017, -0.06787, -0.02124, 1.44336, 4.82178, 17.45605, -20.69092
12026, -0.07776, -0.03381, 1.50732, 0.79346, 36.25488, -28.99170
12034, -0.11548, -0.03455, 1.59473, -3.72314, 60.36377, -38.69629
12043, -0.14124, -0.04431, 1.69751, -8.23975, 89.11133, -46.75293
12053, -0.15100, -0.04297, 1.77637, -11.59668, 123.22998, -51.87988
12062, -0.13733, -0.04187, 1.81555, -14.64844, 160.33936, -56.33545
12071, -0.16797, -0.07080, 1.77014, -16.29639, 196.04492, -60.60791
12080, -0.19531, -0.06873, 1.72559, -17.08984, 224.60937, -61.27930
12089, -0.13708, -0.06213, 1.71704, -15.99121, 246.15479, -57.12891
12097, -0.03589, -0.02527, 1.77258, -9.88770, 265.74707, -54.62646
12106, 0.02380, 0.06201, 1.80542, 3.05176, 286.68213, -58.04443
12115, 0.08240, 0.08020, 1.78772, 21.78955, 310.66895, -63.96484
12124, 0.08826, 0.05505, 1.69116, 43.76221, 334.59473, -72.63184
12133, 0.06299, 0.05469, 1.53870, 66.28418, 352.53906, -79.71191
12142, 0.03381, 0.03430, 1.35608, 88.68408, 355.16357, -81.42090
12150, 0.05603, 0.00647, 1.15515, 109.61914, 338.92822, -75.07324
12159, 0.10986, -0.03857, 0.93689, 129.39453, 313.72070, -61.03516
12167, 0.19519, -0.07434, 0.77271, 143.37158, 284.11865, -43.88428
12175, 0.31531, -0.05554, 0.72412, 149.53613, 260.49805, -29.54102
12184, 0.41199, -0.06726, 0.58154, 151.55029, 248.90137, -22.76611
12193, 0.45032, -0.10754, 0.34021, 148.13232, 237.79297, -21.54541
12202, 0.48950, -0.15540, 0.11438, 132.69043, 220.88623, -19.53125
12211, 0.54016, -0.20166, -0.01624, 109.68018, 202.02637, -14.52637
12219, 0.57605, -0.24841, -0.08569, 82.82471, 183.59375, -9.33838
12227, 0.58752, -0.29077, -0.10791, 56.82373, 166.62598, -4.45557
12235, 0.58215, -0.29663, -0.09546, 35.46143, 149.59717, 0.67139
12244, 0.57397, -0.27905, -0.03516, 21.91162, 133.30078, 7.56836
12253, 0.58435, -0.25818, 0.03015, 15.31982, 118.77441, 14.46533
12262, 0.58728, -0.23181, 0.03137, 17.33398, 107.05566, 19.71436
12271, 0.62463, -0.21399, -0.01379, 23.62061, 95.33691, 23.37646
12279, 0.65881, -0.21594, -0.09680, 29.35791, 81.72607, 25.14648
12288, 0.68945, -0.22546, -0.16504, 31.49414, 65.73486, 24.29199
12296, 0.68433, -0.22168, -0.21106, 29.84619, 48.64502, 21.48438
12305, 0.66919, -0.22083, -0.24524, 25.26855, 32.83691, 18.98193
12313, 0.66504, -0.21924, -0.27417, 18.43262, 18.37158, 18.24951
12322, 0.68115, -0.21667, -0.28979, 9.46045, 4.21143, 18.06641
12331, 0.67468, -0.18945, -0.27759, 1.28174, -9.82666, 17.15088
12339, 0.67456, -0.18054, -0.26294, -5.67627, -26.12305, 16.60156
12347, 0.66504, -0.16687, -0.25586, -11.71875, -43.76221, 16.78467
12356, 0.65198, -0.15869, -0.25891, -17.51709, -60.54688, 17.08984
12365, 0.62708, -0.16052, -0.25415, -22.70508, -80.01709, 20.26367
12374, 0.60339, -0.17859, -0.22681, -26.48926, -103.51563, 24.96338
12383, 0.56567, -0.19971, -0.22815, -27.09961, -128.90625, 31.61621
12392, 0.52673, -0.21509, -0.27222, -28.32031, -156.25000, 40.64941
12401, 0.50256, -0.19788, -0.25073, -34.79004, -189.08691, 50.29297
12410, 0.45361, -0.15503, -0.18689, -43.82324, -223.69385, 58.16650
12419, 0.41248, -0.10742, -0.09143, -53.95508, -253.60107, 63.96484
12428, 0.39685, -0.03601, 0.02612, -64.88037, -275.81787, 66.40625
12436, 0.40125, 0.03625, 0.17383, -75.31738, -289.91699, 65.79590
12444, 0.41431, 0.09998, 0.33069, -82.45850, -297.24121, 62.43896
12453, 0.45850, 0.14709, 0.47791, -83.37402, -299.80469, 54.87061
12462, 0.44543, 0.14465, 0.59460, -76.29395, -299.86572, 42.41943
12470, 0.39343, 0.11902, 0.72058, -64.08691, -295.65430, 29.60205
12479, 0.30505, 0.08472, 0.82654, -47.60742, -288.02490, 21.66748
12488, 0.24902, 0.03369, 0.87268, -29.05273, -278.01514, 21.30127
12497, 0.18372, -0.01318, 0.87976, -12.20703, -268.55469, 25.81787
12506, 0.11292, -0.05872, 0.89819, -1.15967, -260.00977, 32.53174
12514, 0.09875, -0.06335, 0.96460, 3.78418, -247.13135, 42.84668
12523, 0.13831, -0.06812, 1.02954, 4.51660, -227.60010, 50.84229
12532, 0.20105, -0.02454, 1.10583, 4.21143, -202.69775, 52.49023
12541, 0.18750, 0.04419, 1.09375, 5.61523, -177.67334, 46.26465
12550, 0.18188, 0.06348, 1.07068, 7.75146, -160.94971, 36.25488
12558, 0.15747, 0.04773, 1.08484, 7.08008, -152.89307, 23.07129
12566, 0.13086, 0.00769, 1.14563, 5.24902, -143.85986, 9.64355
12575, 0.08850, -0.01501, 1.17932, 2.31934, -129.45557, -1.58691
12584, 0.01233, -0.01721, 1.16333, -0.18311, -111.75537, -9.58252
12593, -0.03833, -0.03687, 1.14624, -2.31934, -99.18213, -14.34326
12602, -0.08252, -0.07239, 1.14966, -4.21143, -94.17725, -16.35742
12611, -0.10962, -0.10925, 1.17725, -7.20215, -89.96582, -16.60156
12620, -0.14392, -0.11938, 1.20361, -10.49805, -81.11572, -14.03809
12629, -0.14294, -0.11511, 1.21875, -13.42773, -70.37354, -10.19287
12638, -0.14502, -0.09570, 1.21887, -13.61084, -62.13379, -6.22559
12647, -0.12341, -0.08850, 1.26331, -10.25391, -58.59375, -3.84521
12655, -0.12048, -0.08752, 1.28796, -4.08936, -55.66406, -3.05176
12664, -0.10901, -0.09302, 1.30127, 2.01416, -49.13330, -3.84521
12673, -0.12329, -0.09705, 1.28101, 7.44629, -40.34424, -5.24902
12682, -0.13586, -0.10095, 1.24170, 10.98633, -32.47070, -6.34766
12691, -0.14246, -0.10681, 1.22009, 12.51221, -27.89307, -6.40869
12700, -0.14307, -0.11487, 1.21240, 11.77979, -23.62061, -5.92041
12709, -0.13635, -0.11169, 1.20313, 9.70459, -17.94434, -4.76074
12718, -0.12402, -0.10449, 1.20129, 6.89697, -12.08496, -3.90625
12727, -0.10352, -0.09875, 1.21765, 4.33350, -7.01904, -3.60107
12736, -0.08691, -0.09717, 1.23987, 1.46484, -0.61035, -4.88281
12745, -0.07031, -0.08545, 1.29712, -2.01416, 26.67236, -12.75635
12754, -0.05212, -0.08508, 1.37390, -9.46045, 49.86572, -19.28711
12763, -0.03357, -0.08594, 1.52332, -12.26807, 79.40674, -26.73340
12772, -0.02161, -0.04272, 1.58594, -14.58740, 110.65674, -35.33936
12781, -0.02710, -0.02405, 1.62146, -16.41846, 142.21191, -43.27393
12789, -0.02710, -0.02405, 1.62146, -16.72363, 171.81396, -49.56055
12798, -0.06116, 0.03333, 1.64087, -16.60156, 197.87598, -53.64990
12807, -0.01538, 0.05408, 1.62927, -17.88330, 222.22900, -57.00684
12815, -0.01538, 0.05408, 1.62927, -18.18848, 246.33789, -60.79102
12824, 0.04419, 0.01184, 1.65613, -16.54053, 272.46094, -68.11523
12832, 0.06506, 0.02136, 1.65613, -0.91553, 299.07227, -71.96045
12840, 0.05432, 0.05847, 1.64465, -10.37598, 299.07227, -71.96045
12848, 0.08179, 0.02979, 1.59753, -0.67139, 320.73975, -72.44873
12857, 0.11353, -0.00256, 1.52991, 12.39014, 333.67920, -71.71631
12866, 0.16284, 0.02307, 1.49121, 30.15137, 337.21924, -69.21387
12874, 0.24390, 0.01477, 1.41187, 54.87061, 330.74951, -67.68799
12883, 0.26367, 0.00647, 1.28955, 86.30371, 316.16211, -67.56592
12892, 0.31433, -0.02893, 1.08411, 118.46924, 296.50879, -65.42969
12901, 0.34583, -0.06396, 0.87708, 143.73779, 270.56885, -60.42480
12910, 0.39673, -0.11707, 0.67920, 157.59277, 208.12988, -43.15186
12918, 0.45984, -0.21118, 0.46326, 160.03418, 208.74023, -43.15186
12927, 0.47327, -0.25928, 0.29321, 151.85547, 181.64062, -32.40967
12936, 0.50269, -0.29016, 0.19910, 132.50732, 159.42383, -8.17871
12945, 0.50818, -0.31372, 0.15149, 74.95117, 139.22119, 3.11279
12953, 0.52185, -0.31885, 0.16797, 77.27051, 139.22119, 3.11279
12961, 0.54358, -0.30640, 0.19482, 50.35400, 136.90186, 13.61084
12969, 0.56763, -0.28638, 0.19690, 29.60205, 134.52148, 22.58301
12977, 0.60767, -0.26062, 0.20459, 16.17432, 129.45557, 29.90723
12986, 0.64954, -0.25049, 0.18237, 7.50732, 121.76514, 33.38623
12994, 0.67664, -0.24768, 0.14404, 3.29590, 111.45020, 33.87451
13003, 0.67468, -0.22095, 0.09961, 2.31934, 96.31348, 32.71484
13012, 0.67908, -0.19800, 0.06421, 3.84521, 77.69775, 31.73828
13021, 0.68982, -0.18274, 0.03528, 7.44629, 57.25098, 30.94482
13030, 0.68762, -0.17334, -0.00293, 12.39014, 36.56006, 28.99170
13038, 0.67249, -0.16809, -0.04370, 16.17432, 17.27295, 26.30615
13046, 0.66479, -0.15442, -0.08496, 15.68604, 0.36621, 23.49854
13054, 0.67029, -0.15076, -0.14905, 11.71875, -14.77051, 21.48438
13062, 0.66565, -0.14258, -0.18677, 3.90625, -31.67725, 19.10400
13070, 0.63611, -0.12793, -0.15100, -6.40869, -48.27881, 17.33398
13078, 0.60120, -0.11755, -0.11890, -15.80811, -65.06348, 17.57813
13086, 0.59937, -0.12439, -0.07910, -25.81787, -79.65088, 19.89746
13094, 0.59473, -0.10413, -0.03125, -36.19385, -89.41650, 22.27783
13102, 0.59473, -0.10413, 0.01733, -44.92188, -97.83936, 24.65820
13110, 0.59302, -0.08398, 0.01733, -44.92188, -107.05566, 26.30615
13118, 0.62012, -0.08057, 0.07361, -52.30713, -107.05566, 26.30615
13126, 0.60071, -0.06543, 0.15210, -56.64063, -114.92920, 25.57373
13134, 0.60608, -0.07971, 0.20825, -56.51855, -123.04688, 24.29199
13142, 0.59265, -0.08472, 0.23767, -52.42920, -134.39941, 22.94922
13150, 0.55920, -0.06091, 0.28711, -47.24121, -145.93506, 21.36230
13158, 0.55908, -0.03748, 0.35962, -44.98291, -153.74756, 20.99609
13166, 0.55737, -0.03491, 0.40771, -43.51807, -155.76172, 21.11816
13174, 0.55078, -0.02502, 0.42529, -41.32080, -155.39551, 21.17920
13182, 0.52881, -0.01709, 0.44055, -39.42871, -157.28760, 21.72852
13190, 0.51440, 0.00134, 0.47205, -37.29248, -162.23145, 23.74268
13198, 0.51721, 0.02576, 0.51843, -34.85107, -168.27393, 25.81787
13206, 0.51721, 0.02576, 0.51843, -32.53174, -173.82812, 26.06201
13214, 0.52087, 0.05884, 0.57312, -32.53174, -173.82812, 23.55957
13222, 0.51819, 0.07129, 0.59729, -29.54102, -180.05371, 23.55957
13230, 0.50793, 0.08203, 0.63306, -26.06201, -187.62207, 18.18848
13238, 0.47974, 0.09607, 0.68433, -22.15576, -195.73975, 10.62012
13246, 0.44092, 0.08765, 0.73047, -17.15088, -203.49121, 2.86865
13254, 0.38806, 0.04944, 0.79321, -11.41357, -210.26611, -3.35693
13262, 0.32800, 0.01086, 0.86292, -5.85937, -211.05957, -7.50732
13270, 0.26648, -0.02588, 0.91541, -0.36621, -204.71191, -8.54492
13278, 0.24268, -0.07727, 0.90381, 5.06592, -195.43457, -5.98145
13286, 0.20068, -0.09167, 0.97583, 7.01904, -182.55615, -2.25830
13294, 0.17664, -0.09607, 0.92627, 10.31494, -171.14258, 2.44141
13302, 0.17664, -0.08069, 0.90723, 12.69531, -164.36768, 8.30078
13311, 0.12000, -0.10449, 0.92896, 12.14600, -162.35352, 13.54980
13320, 0.11841, -0.12085, 1.00818, 10.74219, -160.15625, 16.60156
13329, 0.10425, -0.12012, 1.10474, 9.82666, -151.30615, 17.82227
13337, 0.08496, -0.10962, 1.13306, 10.13184, -135.37598, 17.76123
13345, 0.08496, -0.10962, 1.13306, 10.80322, -116.88232, 18.31055
13354, 0.08618, -0.08984, 1.06470, 10.07080, -103.33252, 16.90674
13363, 0.07825, -0.05957, 1.02319, 8.11768, -95.39795, 12.69531
13372, 0.05457, -0.04993, 0.99719, 5.24902, -90.63721, 8.54492
13381, 0.04883, -0.06934, 0.98535, 0.42725, -89.05029, 5.43213
13389, 0.04883, -0.08777, 1.01257, -5.55420, -87.52441, 2.01416
13398, 0.01196, -0.09058, 1.05859, -12.20703, -83.12988, -1.70898
13407, -0.00745, -0.08948, 1.10388, -17.33398, -75.25635, -3.66211
13416, -0.03357, -0.09631, 1.12500, -20.50781, -66.58936, -5.24902
13425, -0.06250, -0.09912, 1.12756, -20.99609, -59.44824, -5.85937
13434, -0.08862, -0.10901, 1.12976, -20.38574, -55.41992, -5.55420
13443, -0.09863, -0.11768, 1.14636, -19.83643, -53.28369, -4.39453
13452, -0.10486, -0.11218, 1.15942, -18.92090, -50.72021, -2.19727
13461, -0.10571, -0.09485, 1.17896, -16.41846, -47.97363, 0.54932
13470, -0.10974, -0.08215, 1.17200, -12.02393, -45.59326, 3.35693
13479, -0.10339, -0.07996, 1.17285, -7.93457, -43.09082, 6.95801
13487, -0.08984, -0.07446, 1.17749, -5.18799, -39.24561, 10.00977
13496, -0.09094, -0.05676, 1.16699, -3.78418, -33.69141, 11.96289
13504, -0.10022, -0.04004, 1.13611, -2.56348, -28.93066, 12.75635
13513, -0.09985, -0.04749, 1.14307, -2.80762, -27.64893, 12.32910
13521, -0.09912, -0.05371, 1.17041, -5.43213, -26.00098, 10.43701
13529, -0.07458, -0.05090, 1.21204, -8.78906, -19.34814, 8.05664
13538, -0.08838, -0.03625, 1.23962, -11.84082, -11.35254, 3.35693
13548, -0.09912, -0.02966, 1.25854, -12.69531, -4.88281, -1.89209
13557, -0.10791, -0.02405, 1.28308, -12.08496, 2.44141, -5.98145
13566, -0.10498, -0.01208, 1.30627, -11.10840, 12.02393, -9.70459
13575, -0.10632, -0.01563, 1.34009, -10.07080, 23.92578, -14.03809
13584, -0.11328, -0.03247, 1.39709, -9.09424, 38.39111, -18.92090
13593, -0.10535, -0.03162, 1.47485, -7.81250, 58.10547, -23.07129
13602, -0.09595, -0.02808, 1.56494, -5.31006, 83.86230, -26.85547
13611, -0.04724, -0.02087, 1.62109, -2.44141, 119.20166, -30.82275
13620, -0.05078, -0.00537, 1.60461, 1.15967, 157.71484, -37.23145
13629, -0.08203, 0.02197, 1.55554, 4.45557, 192.01660, -44.86084
13638, -0.10156, 0.03015, 1.49524, 6.04248, 221.19141, -48.64502
13647, -0.04736, 0.01160, 1.47668, 3.90625, 247.19238, -48.95020
13656, -0.01111, -0.01831, 1.51453, 1.46484, 274.71924, -52.24609
13665, -0.06470, -0.00244, 1.43188, 4.27246, 299.62158, -55.41992
13674, -0.00879, -0.00232, 1.43738, 6.89697, 325.07324, -51.26953
13683, 0.04309, 0.04004, 1.46472, 13.97705, 347.41211, -47.05811
13692, 0.11755, 0.04797, 1.37598, 31.67725, 345.03174, -49.25537
13701, 0.15662, 0.07092, 1.29785, 89.17236, 340.88135, -51.39160
13710, 0.20898, 0.08374, 1.22217, 123.96240, 314.94141, -51.02539
13719, 0.21619, -0.01221, 0.78442, 151.24512, 280.51758, -45.10498
13728, 0.36987, -0.04248, 0.66943, 168.21289, 246.21582, -34.30176
13737, 0.45483, -0.10168, 0.43591, 175.53711, 213.80615, -25.57373
13745, 0.45483, -0.10168, 0.19507, 171.02051, 180.23682, -18.37158
13753, 0.50000, -0.16528, 0.19507, 171.02051, 150.87891, -9.39941
13762, 0.52026, -0.20190, 0.08557, 113.83057, 134.52148, -0.91553
13771, 0.54639, -0.25769, 0.12427, 75.43945, 132.69043, 5.24902
13779, 0.59094, -0.30615, 0.10181, 75.43945, 130.85937, 10.43701
13788, 0.58948, -0.30920, 0.10693, 20.99609, 121.21582, 16.60156
13796, 0.60620, -0.29248, 0.15613, 20.99609, 121.21582, 16.60156
13804, 0.62109, -0.26501, 0.20276, 10.80322, 106.01807, 23.86475
13813, 0.64941, -0.23999, 0.21875, 8.23975, 89.59961, 28.99170
13822, 0.68701, -0.22705, 0.18262, 7.93457, 74.89014, 30.39551
13831, 0.71582, -0.22095, 0.12585, 6.83594, 58.95996, 25.63477
13839, 0.72058, -0.21802, 0.09558, 4.76074, 40.95459, 25.63477
13847, 0.69067, -0.20044, 0.09912, 0.18311, 24.47510, 21.78955
13856, 0.68018, -0.18164, 0.09949, -5.37109, 11.16943, 19.71436
13865, 0.70020, -0.16724, 0.06165, -10.74219, -0.73242, 19.40918
13874, 0.71667, -0.13464, 0.02979, -17.70020, -13.36670, 18.18848
13883, 0.72144, -0.10974, 0.04993, -27.40479, -26.36719, 15.38086
13892, 0.70959, -0.08936, 0.08008, -36.37695, -54.32129, 10.31494
13901, 0.68872, -0.07922, 0.10938, -49.13330, -66.34521, 9.27734
13910, 0.68604, -0.07263, 0.19153, -49.74365, -77.51465, 8.66699
13918, 0.67114, -0.05750, 0.19885, -49.74365, -91.97998, 8.97217
13927, 0.66150, -0.05139, 0.18433, -40.52734, -111.69434, 10.49805
13935, 0.65576, -0.06079, 0.14001, -40.52734, -111.69434, 10.49805
13944, 0.64087, -0.07507, 0.10645, -37.41455, -166.62598, 14.22119
13953, 0.57910, -0.09290, 0.07214, -43.15186, -189.75830, 17.02881
13962, 0.50916, -0.09900, 0.07788, -52.36816, -214.05029, 20.81299
13970, 0.44104, -0.09412, 0.10815, -52.36816, -214.05029, 24.84131
13979, 0.39148, -0.04517, 0.18457, -81.42090, -243.59131, 27.70996
13988, 0.40295, 0.01648, 0.29504, -92.28516, -249.51172, 26.79443
13996, 0.40796, 0.06055, 0.41516, -92.28516, -249.51172, 20.08057
14004, 0.45068, 0.13123, 0.62720, -96.13037, -252.80762, 20.08057
14013, 0.44055, 0.16003, 0.78503, -85.14404, -254.69971, 8.17871
14022, 0.41125, 0.13550, 0.87488, -62.37793, -254.39453, -20.75195
14031, 0.35657, 0.09045, 0.87988, -36.25488, -245.11719, -22.33887
14040, 0.29150, 0.05066, 0.88318, 0.91553, -240.96680, -24.29199
14049, 0.19653, 0.01038, 0.88525, 9.33838, -235.22949, -19.95850
14057, 0.08813, -0.05139, 0.90417, 9.33838, -219.60449, -10.37598
14065, 0.03613, -0.13171, 0.97278, 11.41357, -225.64697, -10.37598
14073, -0.01965, -0.18420, 1.02222, 9.88770, -208.06885, 3.96729
14081, -0.01038, -0.20056, 1.05225, 5.98145, -185.05859, 21.85059
14089, 0.01965, -0.17761, 1.07434, 0.67139, -159.54590, 36.92627
14097, 0.04150, -0.11768, 1.09717, -2.80762, -136.35254, 45.41016
14105, 0.08301, -0.07239, 1.13440, -3.05176, -120.11719, 46.56982
14113, 0.09900, -0.05359, 1.16345, 0.61035, -108.21533, 41.01563
14121, 0.08789, -0.04724, 1.18481, 4.82178, -96.61865, 31.00586
14130, 0.06677, -0.05444, 1.17395, 6.65283, -83.86230, 20.62988
14138, 0.03101, -0.06165, 1.15613, 5.67627, -70.19043, 11.16943
14146, -0.01953, -0.06995, 1.15149, 1.46484, -58.41064, 3.60107
14154, -0.05420, -0.08374, 1.17151, -4.39453, -49.07227, 0.30518
14162, -0.05420, -0.08374, 1.20276, -9.15527, -40.34424, 0.30518
14170, -0.06543, -0.09131, 1.20239, -9.15527, -31.61621, 1.40381
14178, -0.07581, -0.08118, 1.21167, -11.71875, -31.61621, 1.40381
14186, -0.08057, -0.05457, 1.18823, -10.13184, -23.98682, 3.78418
14194, -0.07690, -0.04346, 1.16882, -5.18799, -23.37646, 6.22559
14202, -0.06787, -0.05640, 1.18213, 1.09863, -28.50342, 7.26318
14210, -0.04968, -0.08643, 1.18359, 6.89697, -30.21240, 8.36182
14218, -0.04297, -0.10193, 1.15918, 10.00977, -25.26855, 8.48389
14226, -0.03625, -0.10742, 1.13806, 8.66699, -16.35742, 7.32422
14234, -0.03296, -0.09961, 1.14856, 4.57764, -6.71387, 4.76074
14242, -0.01501, -0.09106, 1.19800, -0.12207, 5.67627, 1.70898
14250, 0.00964, -0.09875, 1.22815, -4.39453, 24.78027, -1.83105
14258, 0.01147, -0.11084, 1.26636, -9.09424, 47.18018, -7.56836
14266, 0.01147, -0.11084, 1.26636, -12.87842, 72.02148, -13.30566
14275, -0.01672, -0.12390, 1.31543, -15.80811, 97.71729, -15.86914
14283, -0.05164, -0.13806, 1.31543, -15.80811, 122.25342, -13.48877
14291, -0.06860, -0.12988, 1.32300, -18.98193, 122.25342, -13.48877
14300, -0.05249, -0.11536, 1.34814, -22.09473, 147.27783, -8.54492
14308, -0.00195, -0.10669, 1.35864, -26.30615, 175.04883, -4.39453
14317, 0.05188, -0.07617, 1.39221, -31.12793, 206.84814, -2.92969
14326, 0.07300, -0.03809, 1.40540, -30.63965, 236.69434, -5.61523
14335, 0.08154, 0.01611, 1.32800, -26.36719, 274.16992, -8.42285
14343, 0.14111, -0.00220, 1.27625, -22.88818, 277.70996, -8.42285
14352, 0.13745, 0.00220, 1.19836, -18.61572, 286.37695, -10.07080
14361, 0.17847, 0.01160, 1.13159, -12.20703, 286.07178, -6.46973
14370, 0.21655, 0.00256, 1.08838, 13.42773, 257.08008, -1.03760
14379, 0.27600, -0.00403, 1.08301, 38.51318, 232.42187, 4.51660
14388, 0.33411, 0.03784, 1.09924, 65.91797, 210.32715, 7.32422
14396, 0.44531, 0.04968, 1.09924, 65.91797, 194.51904, 5.06592
14404, 0.50867, 0.02686, 0.99377, 92.10205, 194.51904, 5.06592
14413, 0.55151, 0.01794, 0.84985, 112.06055, 178.95508, -0.85449
14421, 0.58398, 0.01770, 0.70996, 122.13135, 158.69141, -6.83594
14429, 0.60352, 0.00098, 0.60449, 123.22998, 137.26807, -11.41357
14438, 0.64319, -0.05945, 0.53308, 116.02783, 119.68994, -13.61084
14447, 0.65271, -0.09570, 0.47864, 102.35596, 107.66602, -14.40430
14455, 0.65063, -0.11462, 0.47461, 81.23779, 101.31836, -14.95361
14464, 0.65857, -0.15588, 0.50024, 55.60303, 103.45459, -13.73291
14473, 0.67224, -0.17224, 0.50049, 31.73828, 108.39844, -11.84082
14482, 0.66235, -0.16125, 0.52222, 14.89258, 108.64258, -8.11768
14490, 0.69312, -0.15601, 0.56165, 4.57764, 105.16357, -3.47900
14499, 0.72314, -0.16040, 0.58008, 1.40381, 99.36523, 0.67139
14508, 0.74011, -0.14050, 0.58325, 1.58691, 91.30859, 2.13623
14516, 0.73462, -0.12415, 0.58862, 3.96729, 84.22852, 1.95312
14524, 0.74866, -0.10437, 0.60291, 9.39941, 78.73535, 1.03760
14533, 0.75293, -0.09338, 0.56299, 17.94434, 74.34082, -0.42725
14542, 0.77002, -0.10156, 0.50159, 24.59717, 68.84766, -1.83105
14551, 0.76965, -0.11157, 0.43677, 27.40479, 63.29346, -3.11279
14560, 0.75391, -0.11853, 0.40466, 26.00098, 57.37305, -4.69971
14569, 0.73865, -0.12659, 0.41614, 20.81299, 54.13818, -5.61523
14578, 0.71533, -0.12097, 0.45276, 15.13672, 54.19922, -5.61523
14587, 0.73547, -0.12292, 0.44580, 11.65771, 56.82373, -3.78418
14595, 0.75549, -0.13000, 0.38147, 12.26807, 55.35889, -3.78418
14603, 0.75159, -0.11938, 0.34814, 13.00049, 47.42432, -3.96729
14612, 0.75391, -0.10730, 0.36377, 12.02393, 41.68701, -5.85937
14621, 0.75476, -0.10693, 0.33606, 11.29150, 40.03906, -8.72803
14630, 0.74500, -0.11975, 0.28235, 12.20703, 35.82764, -11.35254
14639, 0.72937, -0.13391, 0.25989, 12.51221, 28.44238, -14.64844
14648, 0.70679, -0.14563, 0.22998, 12.69531, 15.07568, -14.22119
14657, 0.70203, -0.15784, 0.19263, 7.14111, 9.76562, -13.48877
14666, 0.70642, -0.16077, 0.12842, 1.89209, 4.63867, -13.67187
14675, 0.70117, -0.14612, 0.10632, -2.56348, -3.17383, -13.73291
14684, 0.71985, -0.13171, 0.09509, -5.49316, -15.07568, -14.09912
14693, 0.70850, -0.12134, 0.07556, -7.32422, -29.96826, -15.56396
14703, 0.68677, -0.11426, 0.05432, -9.03320, -45.77637, -17.15088
14713, 0.66858, -0.11707, 0.03137, -12.81738, -61.76758, -17.70020
14722, 0.65039, -0.11951, 0.01855, -17.82227, -78.36914, -16.96777
14731, 0.63159, -0.12231, -0.03577, -22.70508, -97.04590, -14.09912
14740, 0.60315, -0.14600, -0.03821, -31.00586, -116.94336, -9.88770
14749, 0.55371, -0.15125, -0.03760, -38.45215, -138.79395, -4.63867
14758, 0.50684, -0.16492, -0.05737, -43.39600, -166.32080, 2.44141
14767, 0.46509, -0.17126, -0.04309, -49.80469, -196.96045, 11.59668
14776, 0.39172, -0.16821, -0.02649, -55.96924, -229.12598, 20.32471
14785, 0.32312, -0.14844, 0.01917, -62.86621, -263.00049, 29.17480
14794, 0.21497, -0.10852, 0.06396, -69.94629, -296.44775, 36.13281
14803, 0.13428, -0.07166, 0.20459, -76.78223, -326.78223, 43.21289
14812, 0.14880, 0.01501, 0.40820, -82.51953, -351.13525, 48.64502
14821, 0.19543, 0.07349, 0.60986, -81.90918, -366.45508, 48.03467
14829, 0.20496, 0.11279, 0.79785, -71.71631, -367.79785, 39.42871
14838, 0.16272, 0.09021, 0.99121, -56.39648, -356.44531, 28.07617
14847, 0.13757, 0.05774, 1.18201, -37.04834, -333.06885, 19.04297
14856, 0.10242, -0.00684, 1.27209, -15.62500, -302.24609, 14.58740
14865, 0.02527, -0.04395, 1.24011, 0.06104, -265.01465, 24.23096
14874, 0.03210, -0.06787, 1.18201, 6.04248, -192.99316, 28.86963
14883, 0.01221, -0.04150, 1.15515, 1.03760, -168.88428, 31.25000
14892, -0.00427, -0.03101, 1.17078, -1.52588, -151.06201, 32.77588
14901, 0.00122, -0.02246, 1.21667, -2.99072, -137.08496, 33.02002
14910, 0.00647, -0.01733, 1.26111, -2.44141, -123.35205, 29.29688
14919, 0.02307, -0.00012, 1.30115, 0.42725, -109.19189, 21.72852
14928, 0.01489, 0.00000, 1.31091, 4.08936, -94.60449, 11.04736
14937, -0.03198, -0.00378, 1.27905, 7.93457, -80.07813, -0.06104
14946, -0.07617, -0.02844, 1.25671, 8.85010, -68.78662, -9.21631
14955, -0.12585, -0.05530, 1.26172, 7.38525, -61.76758, -16.41846
14964, -0.16638, -0.07593, 1.31104, 3.84521, -55.05371, -21.05713
14973, -0.19934, -0.08398, 1.37000, -0.06104, -43.82324, -22.52197
14982, -0.23486, -0.08997, 1.41760, -2.13623, -31.49414, -22.27783
14991, -0.26270, -0.09692, 1.45239, -2.01416, -20.26367, -21.24023
15000, -0.27356, -0.12415, 1.45959, 0.73242, -8.66699, -18.67676
15009, -0.28284, -0.14893, 1.43933, 2.99072, 3.90625, -15.25879
15018, -0.27832, -0.15466, 1.45520, 3.29590, 17.02881, -12.51221
15027, -0.24756, -0.16211, 1.52576, 2.86865, 31.79932, -11.35254
15039, -0.21082, -0.17212, 1.62683, 3.60107, 86.91406, -14.52637
15047, -0.16528, -0.16760, 1.69128, 5.12695, 86.91406, -14.52637
15056, -0.14417, -0.15186, 1.69202, 7.87354, 122.98584, -18.73779
15065, -0.18872, -0.12292, 1.65271, 10.43701, 182.86133, -28.99170
15073, -0.20728, -0.13025, 1.59387, 10.80322, 182.86133, -28.99170
15081, -0.21057, -0.15210, 1.50916, 8.23975, 205.56641, -26.91650
15089, -0.17871, -0.14905, 1.46021, 0.73242, 222.83936, -22.52197
15097, -0.06152, -0.12817, 1.48242, -8.17871, 240.11230, -18.31055
15105, -0.00061, -0.10193, 1.46643, -11.96289, 259.21631, -17.63916
15113, 0.02563, -0.06677, 1.44348, -10.68115, 275.63477, -16.72363
15121, 0.11523, -0.02002, 1.46948, -5.49316, 289.06250, -16.47949
15129, 0.18799, 0.01563, 1.47070, 4.15039, 303.52783, -19.10400
15137, 0.24829, 0.03320, 1.42603, 18.67676, 317.44385, -26.61133
15145, 0.26245, 0.03979, 1.33105, 35.03418, 325.37842, -36.62109
15153, 0.26135, 0.05359, 1.28918, 54.01611, 324.70703, -44.25049
15162, 0.26379, 0.03491, 1.17151, 75.98877, 318.78662, -48.21777
15170, 0.26379, 0.03491, 1.02063, 96.43555, 305.90820, -47.42432
15178, 0.26038, 0.03162, 1.02063, 96.43555, 290.89355, -42.11426
15186, 0.32373, 0.01746, 0.89673, 109.25293, 290.89355, -42.11426
15194, 0.38416, -0.02551, 0.73230, 115.72266, 275.93994, -35.76660
15202, 0.46179, -0.05872, 0.55615, 115.96680, 257.75146, -30.21240
15210, 0.52625, -0.08032, 0.38098, 109.25293, 239.50195, -25.75684
15218, 0.55884, -0.10522, 0.24182, 97.53418, 221.61865, -21.54541
15226, 0.60474, -0.12439, 0.15039, 79.71191, 205.62744, -16.96777
15234, 0.61279, -0.12878, 0.09253, 59.63135, 192.87109, -12.93945
15242, 0.63550, -0.16541, 0.02747, 42.84668, 183.83789, -9.94873
15250, 0.66321, -0.19763, -0.02246, 31.31104, 170.89844, -6.28662
15258, 0.66724, -0.20447, -0.06958, 24.65820, 150.08545, -1.83105
15266, 0.66553, -0.20776, -0.09070, 21.72852, 127.01416, 3.23486
15274, 0.66553, -0.20776, -0.09070, 20.26367, 105.77393, 7.38525
15282, 0.68420, -0.20544, -0.10742, 20.26367, 105.77393, 9.76562
15290, 0.68933, -0.20142, -0.16101, 19.59229, 85.26611, 9.76562
15298, 0.70056, -0.19751, -0.20386, 15.93018, 64.75830, 10.49805
15306, 0.70764, -0.19861, -0.21436, 11.10840, 46.44775, 10.55908
15315, 0.68982, -0.18066, -0.22278, 6.83594, 30.76172, 10.00977
15324, 0.68835, -0.17749, -0.23706, 3.60107, 15.31982, 10.31494
15333, 0.69543, -0.17334, -0.25806, -1.40381, -0.67139, 10.92529
15342, 0.69971, -0.17151, -0.26184, -8.17871, -14.28223, 10.86426
15351, 0.68018, -0.13416, -0.24377, -17.76123, -26.42822, 9.70459
15360, 0.70850, -0.12549, -0.20605, -26.85547, -35.88867, 8.85010
15369, 0.72632, -0.11304, -0.17078, -34.17969, -46.93604, 5.49316
15378, 0.72961, -0.10291, -0.13672, -38.39111, -75.62256, 2.68555
15387, 0.72876, -0.10400, -0.08606, -37.65869, -92.10205, 0.30518
15396, 0.69666, -0.09607, -0.00879, -35.94971, -109.19189, 0.85449
15405, 0.64734, -0.14514, 0.03650, -34.36279, -126.64795, 3.05176
15414, 0.60645, -0.15991, 0.06873, -32.40967, -143.18848, 6.59180
15424, 0.57092, -0.16077, 0.07434, -31.61621, -160.82764, 12.02393
15434, 0.52966, -0.15137, 0.07239, -34.05762, -179.74854, 19.71436
15443, 0.50000, -0.13525, 0.09412, -40.95459, -201.04980, 28.01514
15452, 0.46155, -0.10522, 0.14941, -49.68262, -223.02246, 35.33936
15461, 0.44080, -0.05298, 0.22803, -58.16650, -244.81201, 41.13770
15470, 0.44128, -0.01904, 0.33191, -66.22314, -263.85498, 42.54150
15480, 0.44519, 0.00818, 0.45728, -71.71631, -275.02441, 39.67285
15489, 0.44580, 0.04468, 0.60083, -72.38770, -279.84619, 31.61621
15498, 0.39429, 0.07153, 0.72144, -64.51416, -283.99658, 20.44678
15507, 0.35779, 0.05176, 0.83765, -48.95020, -288.45215, 9.52148
15516, 0.28516, 0.01880, 0.94116, -28.01514, -289.48975, 2.31934
15525, 0.21924, -0.01782, 0.98682, -5.55420, -283.63037, -0.06104
15534, 0.16431, -0.06860, 1.00830, 13.18359, -272.27783, 10.86426
15543, 0.12122, -0.13757, 1.02014, 24.78027, -235.53467, 23.01025
15552, 0.06592, -0.17480, 1.00317, 27.16064, -211.73096, 36.49902
15560, 0.07043, -0.19482, 0.98083, 27.16064, -211.73096, 52.12402
15569, 0.08582, -0.17615, 0.97266, 21.66748, -170.59326, 55.96924
15577, 0.10608, -0.13232, 0.99133, 16.05225, -170.59326, 55.96924
15586, 0.14270, -0.07227, 1.00049, 13.30566, -156.79932, 57.73926
15595, 0.18994, -0.06201, 1.02844, 14.34326, -147.64404, 40.89355
15604, 0.19177, -0.05774, 1.08667, 20.44678, -130.18799, 26.67236
15613, 0.15210, -0.06921, 1.10364, 19.89746, -113.95264, 14.03809
15622, 0.10107, -0.10413, 0.99951, 13.85498, -97.65625, 3.05176
15630, 0.03674, -0.10413, 0.99951, 2.68555, -87.76855, -4.82178
15639, -0.02075, -0.15796, 0.94531, -12.20703, -80.01709, -10.07080
15648, -0.04944, -0.16589, 1.05139, -24.71924, -70.67871, -12.57324
15657, -0.10352, -0.17310, 1.10461, -32.22656, -61.76758, -11.90186
15666, -0.12720, -0.16138, 1.13025, -34.48486, -55.23682, -8.72803
15675, -0.12378, -0.16211, 1.15002, -31.73828, -51.51367, -3.47900
15684, -0.12036, -0.16650, 1.17798, -26.91650, -49.98779, 2.38037
15693, -0.12720, -0.15442, 1.20776, -20.08057, -47.91260, 8.36182
15702, -0.11328, -0.13989, 1.23096, -12.69531, -44.98291, 13.97705
15711, -0.11267, -0.12134, 1.22815, -4.21143, -42.41943, 18.73779
15720, -0.10461, -0.10608, 1.24353, 2.80762, -40.58838, 21.97266
15729, -0.08362, -0.08398, 1.29736, 7.38525, -37.65869, 22.64404
15738, -0.05859, -0.06262, 1.33679, 10.43701, -30.94482, 19.89746
15747, -0.05542, -0.05994, 1.32800, 10.98633, -19.71436, 13.36670
15755, -0.08789, -0.04260, 1.32031, 6.34766, -6.95801, 3.35693
15764, -0.09363, -0.04016, 1.35742, -4.15039, 7.20215, -6.53076
15773, -0.07507, -0.05542, 1.44189, -18.00537, 28.19824, -17.15088
15782, -0.04712, -0.05457, 1.53235, -34.36279, 59.38721, -29.90723
15791, 0.03638, -0.00476, 1.69629, -52.55127, 100.34180, -46.14258
