Time,Ax,Ay,Az,Gx,Gy,Gz
2,0.24683,0.70361,0.81531,-56.7627,-42.90771,27.83203
11,0.40894,0.81958,0.95886,-57.31201,-31.92139,33.38623
20,0.51489,0.84729,1.06714,-63.11035,-25.81787,39.42871
29,0.61963,0.91553,1.1936,-68.66455,-13.24463,45.04395
38,0.79443,0.95398,1.29199,-68.2373,-3.90625,48.46191
47,0.93213,0.96619,1.31311,-61.76758,-4.08936,46.875
55,1.08582,0.9071,1.31152,-51.57471,-10.62012,40.22217
68,1.14124,0.87598,1.2738,-42.23633,-26.67236,28.13721
77,1.16138,0.80981,1.26306,-30.94482,-41.56494,12.93945
86,1.14368,0.69983,1.21106,-18.06641,-55.9082,-2.50244
95,1.10645,0.58533,1.15259,-7.01904,-67.81006,-14.95361
103,1.05347,0.46045,1.09265,0.91553,-72.63184,-23.55957
111,1.00732,0.34717,1.03577,4.27246,-70.61768,-28.86963
119,0.93872,0.26587,1.0061,2.74658,-63.5376,-31.00586
128,0.90674,0.1875,1.00427,0.85449,-50.72021,-27.89307
137,0.8999,0.13123,0.99805,2.31934,-36.86523,-21.85059
145,0.87866,0.0979,0.95642,8.60596,-23.74268,-15.25879
153,0.84473,0.08289,0.896,17.51709,-12.39014,-9.52148
161,0.80823,0.05432,0.81677,26.79443,-3.60107,-4.3335
169,0.77771,0.01392,0.71619,34.91211,3.35693,0.36621
177,0.74438,-0.01147,0.63831,40.83252,9.21631,3.78418
185,0.69019,-0.02832,0.57983,45.8374,13.73291,5.18799
194,0.64807,-0.02759,0.5343,50.96436,16.72363,4.69971
202,0.64807,-0.05005,0.47327,57.43408,20.1416,3.35693
211,0.58374,-0.06055,0.41406,62.5,23.01025,0.36621
220,0.55359,-0.04797,0.39978,65.00244,26.61133,-2.0752
229,0.53052,-0.02417,0.39917,67.13867,31.00586,-2.86865
237,0.52991,0.01123,0.41785,70.12939,38.45215,-2.86865
245,0.52991,0.01123,0.41785,74.646,49.01123,-2.38037
254,0.53357,0.10339,0.4458,80.3833,61.4624,-2.19727
263,0.52246,0.18372,0.4248,83.98438,75.07324,-2.74658
273,0.53271,0.24634,0.43835,84.65576,90.20996,-1.83105
283,0.5802,0.28918,0.46729,85.44922,104.18701,0.36621
292,0.62634,0.37292,0.50928,86.60889,114.25781,0.12207
301,0.69568,0.42773,0.57214,89.35547,121.27686,-2.13623
310,0.79028,0.45337,0.64685,93.32275,126.34277,-6.22559
319,0.88538,0.47424,0.76392,96.0083,128.84521,-13.73291
328,1.02344,0.43274,0.87805,98.93799,130.31006,-21.30127
336,1.1759,0.38977,1.01563,101.5625,130.98145,-27.22168
344,1.28027,0.4043,1.18469,102.11182,131.16455,-29.78516
353,1.30408,0.51306,1.37134,99.12109,132.38525,-25.14648
362,1.3291,0.60767,1.49963,93.50586,136.16943,-14.03809
371,1.25818,0.77087,1.58044,81.84814,142.08984,-1.83105
379,1.20471,0.96106,1.63257,63.96484,151.06201,9.58252
387,1.16528,1.08984,1.62634,45.34912,160.7666,15.93018
396,1.06128,1.14917,1.57568,30.33447,164.30664,13.24463
405,0.93005,1.12073,1.45728,22.15576,155.51758,6.28662
414,0.73792,1.04163,1.27258,20.08057,137.08496,-3.479
422,0.54053,0.92786,1.05994,18.79883,115.29541,-14.70947
431,0.4176,0.74927,0.86658,16.05225,94.36035,-26.42822
440,0.25183,0.56055,0.71179,10.37598,75.31738,-37.23145
448,0.11121,0.37512,0.57556,6.46973,56.27441,-42.72461
456,-0.01147,0.22144,0.45605,3.17383,42.29736,-42.17529
464,-0.08765,0.07971,0.3656,-0.54932,30.09033,-34.66797
473,-0.12415,0.00073,0.29639,-4.63867,18.61572,-22.2168
482,-0.15942,-0.04395,0.23279,-7.62939,8.54492,-8.97217
491,-0.16467,-0.07324,0.16028,-11.23047,1.34277,3.96729
499,-0.18079,-0.05591,0.08508,-15.68604,-3.60107,16.60156
508,-0.19507,-0.03979,0.00854,-20.20264,-5.79834,26.79443
517,-0.23071,-0.02808,-0.07153,-23.07129,-7.20215,33.87451
525,-0.28638,-0.0293,-0.17029,-23.4375,-7.69043,37.78076
534,-0.33789,-0.04553,-0.25671,-23.92578,-9.76562,40.95459
542,-0.38159,-0.05396,-0.30505,-25.57373,-14.77051,44.7998
551,-0.43298,-0.03479,-0.32007,-28.68652,-20.62988,48.0957
559,-0.46497,-0.00842,-0.31006,-32.2876,-25.93994,51.57471
568,-0.47705,0.02698,-0.28186,-35.52246,-29.72412,54.38232
576,-0.47278,0.06799,-0.2467,-37.59766,-31.98242,56.09131
584,-0.47278,0.06799,-0.2467,-38.14697,-31.86035,55.48096
593,-0.44812,0.1488,-0.22546,-39.00146,-30.27344,52.36816
601,-0.41589,0.1488,-0.22546,-41.68701,-27.40479,46.26465
610,-0.3927,0.19189,-0.20862,-44.37256,-23.68164,40.03906
619,-0.37439,0.25439,-0.13611,-45.34912,-18.85986,36.62109
627,-0.34766,0.25403,-0.13611,-45.34912,-11.90186,33.81348
635,-0.29956,0.29504,-0.11621,-44.37256,-11.90186,33.81348
644,-0.23267,0.3219,-0.13501,-44.67773,-4.3335,26.18408
652,-0.14771,0.36975,-0.16174,-49.31641,3.479,26.18408
660,-0.02649,0.44141,-0.14868,-58.77686,12.3291,22.27783
668,0.10803,0.55542,-0.11365,-70.92285,19.04297,19.16504
676,0.26489,0.67102,-0.04883,-83.25195,22.15576,16.78467
684,0.48657,0.79651,0.08484,-94.66553,19.47021,17.27295
692,0.82458,0.92957,0.29053,-102.84424,10.55908,24.4751
704,1.2666,1.11047,0.60767,-104.55322,-6.10352,37.17041
713,1.76367,1.38916,0.96729,-97.35107,-28.19824,50.59814
721,2.27795,1.72937,1.38232,-82.33643,-52.91748,58.22754
729,2.72339,2.04956,1.69141,-60.85205,-81.05469,53.28369
737,3.16235,2.18127,2.10364,-41.50391,-106.38428,34.85107
745,3.23413,2.1239,2.22729,-26.79443,-120.42236,-0.61035
753,3.0199,1.80396,2.17432,-14.09912,-119.93408,-42.72461
761,2.58643,1.38892,2.00488,-13.18359,-103.33252,-78.97949
769,2.1051,0.91125,1.75427,-20.1416,-67.99316,-100.5249
777,1.69458,0.49451,1.45837,-30.63965,-21.11816,-102.47803
785,1.36292,0.20813,1.17139,-40.1001,26.48926,-87.82959
794,1.21729,0.03955,0.93433,-43.64014,64.51416,-62.5
802,1.16101,-0.00183,0.71021,-40.22217,87.1582,-34.79004
810,1.16101,-0.00183,0.61646,-34.66797,94.17725,-13.79395
819,1.04541,0.26855,0.48218,-25.39063,85.20508,3.17383
827,1.04419,0.26855,0.48218,-13.42773,68.42041,16.05225
836,1.02222,0.26282,0.25159,-7.56836,55.96924,18.00537
844,0.96558,0.3772,0.26978,-7.56836,40.34424,18.00537
852,0.86609,0.40247,0.1991,-2.80762,40.52734,18.00537
861,0.81799,0.30261,0.05408,5.43213,25.02441,17.8833
869,0.71729,0.20154,-0.07813,8.11768,14.4043,12.39014
877,0.58813,0.11975,-0.13391,2.2583,9.39941,3.17383
885,0.49585,0.0343,-0.14648,-4.69971,4.82178,-3.84521
893,0.41016,-0.04614,-0.1416,-7.38525,-1.0376,-7.99561
902,0.35828,-0.1532,-0.17212,-5.85937,-8.11768,-10.49805
910,0.28784,-0.22095,-0.20715,-4.21143,-14.89258,-12.39014
919,0.23499,-0.25745,-0.19922,-5.31006,-19.22607,-14.46533
929,0.21411,-0.29382,-0.17566,-6.89697,-22.64404,-14.83154
938,0.20508,-0.29065,-0.14294,-7.08008,-26.61133,-15.25879
947,0.20581,-0.23962,-0.08875,-6.22559,-29.54102,-17.27295
956,0.22009,-0.22498,-0.0658,-3.54004,-32.04346,-18.9209
965,0.22913,-0.21985,-0.03711,-0.85449,-34.42383,-20.44678
974,0.24951,-0.20654,-0.00574,2.19727,-35.40039,-22.46094
983,0.27332,-0.18909,0.00659,7.26318,-34.79004,-28.62549
992,0.31799,-0.18359,0.01355,15.25879,-30.39551,-33.3252
1001,0.36682,-0.15662,0.02197,15.56396,-27.58789,-38.87939
1009,0.42761,-0.13293,0.05542,15.56396,-27.58789,-44.98291
1018,0.50012,-0.09753,0.11206,14.89258,-21.60645,-50.84229
1027,0.56738,-0.03442,0.19727,18.49365,-19.104,-53.58887
1036,0.67944,0.03723,0.42102,26.67236,-18.00537,-54.87061
1045,1.01135,0.11401,0.53662,36.8042,-17.21191,-58.28857
1053,1.01135,0.11401,0.53662,47.11914,-15.74707,-64.7583
1062,1.23242,0.10913,0.79639,54.62646,-13.3667,-73.30322
1070,1.50183,0.07336,0.78284,54.62646,-10.13184,-78.00293
1078,1.79651,0.05981,0.99341,60.4248,-10.13184,-78.00293
1086,2.09143,0.1405,1.24182,67.74902,-7.20215,-74.09668
1095,2.32251,0.2854,1.4635,76.53809,-0.36621,-68.60352
1103,2.427,0.45276,1.63623,79.71191,17.57813,-68.11523
1111,2.45813,0.6217,1.76038,75.74463,47.36328,-66.65039
1119,2.46838,0.78882,1.77576,68.29834,80.56641,-58.34961
1127,2.41589,0.97766,1.70862,58.28857,110.5957,-45.53223
1136,2.30383,1.15051,1.59387,47.24121,133.36182,-31.61621
1144,2.12451,1.23767,1.41223,39.91699,147.27783,-20.26367
1153,1.85132,1.24377,1.16467,35.27832,152.22168,-14.46533
1162,1.56885,1.12231,0.89404,30.45654,148.68164,-10.98633
1171,1.25452,0.97852,0.62439,24.16992,139.16016,-8.60596
1179,1.01868,0.85754,0.42761,13.79395,126.83105,-6.40869
1188,0.91199,0.80322,0.39966,1.77002,110.22949,-4.82178
1196,0.74426,0.74451,0.35571,-3.11279,79.46777,-6.22559
1205,0.62402,0.60864,0.30701,1.64795,43.94531,-11.35254
1213,0.44678,0.45264,0.28125,8.30078,13.06152,-18.85986
1221,0.25903,0.35291,0.3363,11.35254,-12.75635,-22.70508
1230,0.0531,0.25574,0.34399,14.46533,-35.33936,-18.37158
1238,-0.0813,0.15649,0.34143,19.53125,-48.58398,-6.83594
1247,-0.22314,0.10291,0.32947,20.32471,-50.47607,5.7373
1255,-0.34021,0.09082,0.33801,16.23535,-42.48047,19.59229
1264,-0.41357,0.10193,0.35876,12.26807,-28.38135,33.63037
1273,-0.46948,0.12537,0.33545,11.53564,-12.26807,44.31152
1281,-0.49731,0.14185,0.28137,12.26807,3.84521,49.31641
1290,-0.52844,0.14612,0.20178,13.67187,19.65332,48.88916
1298,-0.54834,0.13184,0.11536,14.03809,32.10449,44.86084
1306,-0.5835,0.10913,0.01941,14.22119,40.71045,39.18457
1315,-0.6145,0.08069,-0.06567,13.30566,46.02051,33.99658
1324,-0.61755,0.03625,-0.15454,12.08496,49.07227,31.67725
1332,-0.60925,0.01746,-0.23645,9.58252,50.59814,31.18896
1341,-0.56653,0.02112,-0.29932,6.34766,50.84229,32.71484
1350,-0.50623,0.04736,-0.34143,2.56348,49.07227,34.17969
1358,-0.4364,0.08691,-0.3645,-0.85449,44.7998,33.81348
1367,-0.35352,0.13184,-0.37708,-3.479,37.96387,30.33447
1375,-0.35352,0.1842,-0.35852,-5.7373,29.72412,23.68164
1383,-0.26929,0.1842,-0.35852,-7.8125,20.62988,14.09912
1392,-0.18323,0.21851,-0.33484,-9.09424,10.86426,4.3335
1401,-0.12756,0.27417,-0.25061,-11.59668,2.92969,-3.11279
1409,-0.06116,0.25647,-0.25061,-14.16016,-1.70898,-7.14111
1418,0.01379,0.27478,-0.19604,-18.12744,-3.78418,-9.21631
1426,0.11316,0.29541,-0.16443,-18.12744,-3.78418,-8.36182
1435,0.24548,0.31702,-0.14978,-40.52734,-2.2583,-3.23486
1444,0.45007,0.31567,-0.13245,-43.5791,-4.69971,7.01904
1453,0.71436,0.32019,0.0564,-50.1709,-16.47949,23.92578
1461,1.05334,0.4176,0.0564,-50.1709,-43.09082,46.93604
1470,1.45447,0.59338,0.25415,-47.18018,-79.10156,70.55664
1478,1.8407,0.97815,0.60876,-47.18018,-79.10156,86.18164
1486,2.30969,1.40759,1.06848,-38.20801,-115.53955,86.79199
1494,2.70837,1.74463,1.45203,-17.8833,-147.3999,84.65576
1502,2.90405,1.89136,1.68311,4.82178,-169.7998,63.17139
1511,2.88831,1.81775,1.81299,15.93018,-170.28809,30.76172
1519,2.68762,1.55408,1.8269,11.84082,-142.08984,-1.64795
1527,2.40918,1.1875,1.73962,-0.42725,-93.44482,-23.07129
1535,2.1156,0.82202,1.52319,-10.55908,-40.1001,-28.25928
1543,1.87781,0.5769,1.25476,-15.13672,5.7373,-18.18848
1551,1.72314,0.45837,0.97717,-15.38086,39.91699,-0.06104
1559,1.64136,0.43994,0.70898,-13.18359,61.82861,18.98193
1567,1.58337,0.46643,0.48267,-11.16943,71.22803,31.92139
1575,1.50549,0.49756,0.30396,-9.58252,70.12939,35.5835
1583,1.50549,0.49756,0.30396,-8.05664,60.60791,30.39551
1591,1.39734,0.48828,0.15759,-8.05664,60.60791,30.39551
1599,1.24951,0.41064,-0.00305,-6.16455,46.32568,19.34814
1607,1.07434,0.30249,-0.12109,-9.15527,32.04346,5.00488
1616,0.9259,0.23206,-0.13599,-16.41846,20.26367,-7.87354
1624,0.74707,0.17285,-0.12549,-20.93506,7.01904,-16.90674
1632,0.63586,0.02197,-0.21411,-17.76123,-10.0708,-19.59229
1641,0.54285,-0.04175,-0.18066,-14.77051,-27.64893,-21.11816
1649,0.44653,-0.12146,-0.16968,-9.15527,-53.28369,-20.81299
1657,0.37415,-0.20776,-0.16724,1.0376,-79.1626,-22.70508
1665,0.25562,-0.27014,-0.11987,5.5542,-95.39795,-28.19824
1673,0.15308,-0.32983,0.00903,1.64795,-96.80176,-32.04346
1681,0.09277,-0.39038,0.13086,-2.80762,-88.0127,-32.34863
1689,0.05469,-0.43286,0.18579,-3.78418,-72.50977,-29.47998
1698,0.06201,-0.47217,0.19385,-2.56348,-55.29785,-24.04785
1706,0.07141,-0.45996,0.17737,-1.15967,-40.40527,-19.28711
1715,0.11292,-0.42957,0.1637,1.15967,-28.44238,-15.68604
1723,0.15759,-0.3855,0.14307,5.06592,-20.1416,-14.83154
1731,0.15759,-0.3855,0.14307,10.49805,-15.625,-16.11328
1739,0.20544,-0.34119,0.14331,10.49805,-14.34326,-18.12744
1747,0.26306,-0.29187,0.18079,17.27295,-14.34326,-18.12744
1755,0.30249,-0.23389,0.21716,28.68652,-17.21191,-19.40918
1763,0.35217,-0.21985,0.21973,42.72461,-21.66748,-19.71436
1771,0.43652,-0.23096,0.19604,55.11475,-22.33887,-21.60645
1779,0.51172,-0.20532,0.20142,61.88965,-15.86914,-27.09961
1787,0.62463,-0.17468,0.2688,63.96484,-7.38525,-32.40967
1796,0.76355,-0.15344,0.33704,67.32178,-1.40381,-36.07178
1804,0.91541,-0.15405,0.40234,72.63184,1.95312,-39.61182
1813,1.08936,-0.18494,0.49023,75.98877,4.69971,-41.19873
1822,1.31519,-0.21692,0.61511,77.0874,7.62939,-39.0625
1830,1.60925,-0.2533,0.74792,78.00293,11.77979,-33.08105
1838,1.90906,-0.19507,0.89294,77.33154,17.51709,-23.25439
1847,2.16431,0.0177,1.07715,72.69287,24.59717,-10.92529
1855,2.4314,0.3092,1.29749,65.7959,33.44727,0.48828
1863,2.59692,0.56311,1.47791,59.44824,43.88428,2.68555
1871,2.60901,0.70654,1.57898,54.32129,54.32129,-5.79834
1879,2.45276,0.75916,1.60498,51.02539,63.96484,-17.57813
1888,2.24451,0.73437,1.51221,50.04883,73.36426,-24.78027
1896,2.24451,0.73437,1.51221,46.32568,85.81543,-25.02441
1905,1.98267,0.61914,1.13586,35.7666,100.21973,-19.83643
1913,1.71948,0.61914,1.13586,23.68164,109.80225,-10.00977
1921,1.47803,0.58838,0.96277,23.68164,109.80225,-10.00977
1930,1.28345,0.54956,0.77246,14.4043,108.94775,12.3291
1939,1.08752,0.48218,0.57727,-7.87354,79.40674,20.75195
1947,0.88525,0.46716,0.46094,-1.0376,79.40674,20.75195
1956,0.72742,0.51392,0.44836,-10.68115,58.1665,23.92578
1966,0.51306,0.59009,0.53259,-17.27295,27.03857,17.7002
1974,0.51306,0.59009,0.53259,-11.77979,10.92529,11.47461
1982,0.396,0.49011,0.46692,-11.77979,10.92529,11.47461
1991,0.22705,0.34607,0.33362,-6.10352,-0.97656,1.09863
1999,0.03662,0.24341,0.27722,-8.8501,-0.97656,1.09863
2008,-0.10461,0.15771,0.26294,-17.15088,3.41797,23.19336
2016,-0.20959,0.10083,0.22876,-23.86475,8.72803,21.42334
2025,-0.28857,0.10034,0.21094,-28.07617,16.35742,36.92627
2033,-0.32263,0.13538,0.20874,-30.27344,23.98682,51.87988
2042,-0.31311,0.20422,0.20532,-30.15137,30.09033,62.98828
2050,-0.29333,0.25122,0.17957,-27.03857,36.01074,66.46729
2058,-0.26831,0.27344,0.14075,-23.01025,41.07666,63.11035
2066,-0.25391,0.29675,0.10352,-20.44678,44.6167,55.54199
2074,-0.2583,0.29846,0.05542,-18.43262,47.05811,46.81396
2083,-0.22583,0.26025,0.00891,-16.29639,48.76709,39.79492
2091,-0.22168,0.24622,-0.04309,-15.01465,48.58398,33.56934
2100,-0.19373,0.24219,-0.07739,-14.46533,47.79053,28.74756
2108,-0.13892,0.25488,-0.08997,-14.22119,47.42432,24.90234
2117,-0.09216,0.26208,-0.11279,-12.69531,46.50879,18.55469
2126,-0.02722,0.28064,-0.14014,-11.53564,44.00635,10.80322
2135,0.05627,0.28137,-0.17078,-12.69531,40.95459,0.91553
2144,0.12451,0.27808,-0.18372,-17.02881,37.41455,-11.96289
2153,0.18384,0.29224,-0.15027,-23.19336,31.98242,-24.96338
2162,0.26099,0.30798,-0.09692,-27.58789,25.20752,-35.70557
2171,0.3573,0.29565,-0.07544,-28.19824,18.73779,-43.82324
2180,0.48279,0.28345,-0.05786,-29.11377,12.57324,-47.85156
2189,0.66479,0.25269,-0.03296,-32.95898,6.22559,-46.38672
2198,0.93091,0.21692,0.02307,-39.00146,-2.92969,-39.0625
2207,1.24817,0.27673,0.17407,-44.6167,-17.94434,-24.78027
2216,1.57947,0.48474,0.3988,-45.22705,-41.38184,-5.98145
2226,1.95068,0.74878,0.63586,-26.67236,-99.12109,20.62988
2236,2.47449,1.12122,1.07178,-14.64844,-124.51172,15.19775
2245,2.52026,1.14636,1.22327,-4.94385,-139.64844,1.95312
2254,2.43311,1.08472,1.302,-0.18311,-137.20703,-10.49805
2262,2.23987,0.95703,1.27917,0.12207,-114.01367,-20.26367
2271,2.04529,0.71423,1.12012,-0.73242,-77.51465,-23.62061
2280,1.82898,0.4873,0.8949,-4.02832,-38.57422,-20.56885
2289,1.6521,0.3103,0.67078,-9.70459,-4.02832,-12.20703
2298,1.57239,0.18042,0.48437,-13.42773,21.11816,0.67139
2306,1.50366,0.13416,0.32593,-13.3667,30.94482,14.89258
2314,1.44995,0.11768,0.17542,-10.68115,29.05273,27.16064
2323,1.39001,0.09216,0.04333,-9.64355,21.60645,36.01074
2332,1.32458,0.05774,-0.0553,-13.48877,14.5874,39.79492
2340,1.2395,0.11169,-0.01685,-22.82715,11.41357,37.71973
2348,1.2395,0.23669,0.09302,-29.35791,5.5542,33.38623
2356,1.13062,0.23755,0.09302,-29.35791,-11.2915,33.56934
2365,0.99316,0.36401,0.20935,-3.41797,-37.10938,36.74316
2374,0.95276,0.13538,-0.08899,1.64795,-46.20361,26.30615
2382,0.7561,0.07239,-0.08899,1.64795,-48.64502,14.95361
2390,0.59998,-0.05042,-0.10632,-7.87354,-48.64502,14.95361
2399,0.48364,-0.17212,-0.10168,-21.97266,-45.10498,5.12695
2408,0.38232,-0.24585,-0.0918,-34.79004,-22.15576,-16.17432
2417,0.2666,-0.23865,-0.07568,-52.24609,-26.18408,-20.75195
2425,0.14575,-0.11987,0.00415,-52.24609,-26.18408,-20.75195
2433,0.09412,-0.03687,0.08447,-49.1333,-28.74756,-12.75635
2442,0.13025,-0.12036,0.05176,-36.43799,-36.74316,-1.58691
2451,0.14478,-0.19495,0.00464,-26.30615,-41.56494,-0.48828
2460,0.12305,-0.21521,0.02148,-22.09473,-41.93115,-9.94873
2469,0.11829,-0.26489,0.03125,-3.11279,-37.96387,-14.95361
2478,0.10706,-0.2572,0.05762,-8.05664,-33.56934,-18.9209
2487,0.14185,-0.29077,0.02234,-3.2959,-27.03857,-24.35303
2496,0.20984,-0.30322,0.0105,-1.77002,-18.67676,-32.04346
2504,0.20984,-0.30322,0.0105,-1.64795,-10.68115,-40.34424
2513,0.2406,-0.30139,0.1145,1.34277,-6.40869,-46.875
2521,0.28345,-0.31287,0.09741,1.34277,-7.14111,-51.14746
2530,0.33423,-0.33813,0.11975,17.02881,-10.98633,-53.22266
2538,0.40405,-0.36108,0.14014,17.02881,-10.98633,-53.22266
2546,0.50964,-0.38696,0.1731,24.16992,-14.64844,-54.93164
2554,0.64111,-0.38464,0.25024,28.68652,-17.08984,-58.59375
2562,0.80542,-0.38855,0.34143,32.95898,-19.89746,-62.68311
2570,0.98486,-0.4447,0.41223,37.35352,-22.46094,-67.87109
2578,1.1731,-0.52368,0.495,38.75732,-22.82715,-73.18115
2586,1.40503,-0.58948,0.64453,35.15625,-19.104,-74.27979
2595,1.70813,-0.57922,0.89282,29.72412,-10.13184,-68.72559
2603,2.00122,-0.44238,1.1554,28.38135,-0.61035,-56.51855
2611,2.24902,-0.22705,1.36353,35.03418,7.38525,-40.52734
2619,2.44934,0.03833,1.51428,44.86084,15.68604,-25.81787
2627,2.61475,0.34241,1.62341,52.00195,27.89307,-16.17432
2635,2.70264,0.64514,1.6925,53.03955,43.70117,-15.68604
2643,2.70264,0.64514,1.6925,50.84229,61.03516,-25.5127
2651,2.64722,0.84375,1.65417,50.84229,61.03516,-41.1377
2659,2.47156,0.90564,1.51208,46.14258,78.30811,-41.50391
2667,2.2124,0.82959,1.2981,39.85596,95.21484,-57.55615
2675,1.92969,0.66772,1.02942,32.34863,108.45947,-68.96973
2683,1.62683,0.4917,0.74963,24.35303,115.84473,-73.85254
2691,1.35156,0.31848,0.49707,15.50293,115.66162,-71.22803
2699,1.11743,0.18005,0.31311,6.10352,106.81152,-62.19482
2707,0.90808,0.11389,0.21375,-1.28174,88.68408,-49.56055
2715,0.7373,0.12732,0.19421,-4.88281,63.7207,-36.62109
2723,0.62903,0.17114,0.21777,-3.479,36.13281,-26.61133
2731,0.50403,0.19287,0.21631,1.95312,11.2915,-22.88818
2739,0.50403,0.19287,0.20447,8.17871,-7.44629,-22.70508
2747,0.37915,0.17517,0.20447,8.17871,-19.53125,-21.05713
2755,0.24512,0.12695,0.17859,11.23047,-19.53125,-21.05713
2764,0.12598,0.0957,0.17249,10.0708,-22.09473,-15.56396
2773,0.04358,0.09595,0.19006,5.92041,-1.58691,5.5542
2782,0.00085,0.13855,0.21533,2.38037,13.00049,17.33398
2791,-0.0155,0.1814,0.17468,4.15039,26.30615,26.48926
2800,-0.00928,0.24731,0.13708,5.06592,37.35352,31.18896
2808,-0.00134,0.24731,0.13708,6.46973,46.02051,32.04346
2816,0.01721,0.27661,0.09692,6.46973,46.02051,32.04346
2824,0.03577,0.31079,0.052,7.20215,52.55127,29.47998
2832,0.04675,0.32922,0.03064,5.98145,58.47168,24.59717
2841,0.09607,0.34241,0.02673,4.76074,62.13379,20.69092
2849,0.15039,0.37988,0.03186,4.88281,63.17139,17.82227
2857,0.19604,0.422,0.02881,5.67627,61.64551,13.73291
2865,0.23633,0.44873,0.01758,6.46973,58.77686,9.33838
2873,0.29175,0.46875,0.01221,5.49316,56.15234,4.76074
2881,0.3363,0.48242,0.02747,3.17383,55.11475,-1.52588
2890,0.36658,0.48486,0.02625,1.70898,53.95508,-8.91113
2899,0.38135,0.47339,0.0177,0.67139,52.36816,-17.82227
2908,0.40344,0.45239,0.01514,-1.95312,50.96436,-25.57373
2917,0.43286,0.4425,0.00854,-4.76074,49.49951,-30.82275
2926,0.48694,0.42212,0.01099,-8.23975,48.52295,-32.89795
2934,0.55957,0.42944,0.01294,-12.26807,48.27881,-30.0293
2943,0.65112,0.44934,0.00049,-15.93018,49.25537,-22.27783
2951,0.81396,0.44202,-0.03174,-19.9585,51.08643,-10.13184
2960,1.0033,0.4541,-0.0509,-25.87891,49.37744,2.01416
2968,1.21985,0.49744,-0.02002,-33.14209,40.58838,14.70947
2976,1.45093,0.56079,0.06409,-39.36768,21.3623,25.45166
2984,1.62891,0.63599,0.17078,-41.68701,-6.04248,31.55518
2992,1.74585,0.64502,0.26123,-38.39111,-37.65869,30.70068
3000,1.81348,0.55371,0.31689,-33.87451,-68.0542,26.42822
3008,1.81348,0.55371,0.31689,-30.63965,-91.79688,23.4375
3016,1.7926,0.46936,0.37903,-30.63965,-91.79688,23.4375
3024,1.76038,0.3728,0.46594,-28.56445,-102.66113,24.90234
3032,1.68262,0.22937,0.50488,-26.97754,-97.77832,28.9917
3040,1.60083,0.05029,0.52026,-27.40479,-79.58984,34.30176
3049,1.52673,-0.12097,0.51245,-28.62549,-55.7251,42.05322
3058,1.47998,-0.27087,0.47095,-27.28271,-35.7666,53.95508
3066,1.42603,-0.33838,0.40393,-22.70508,-24.35303,70.43457
3075,1.38977,-0.3396,0.33081,-16.6626,-18.98193,90.51514
3084,1.36023,-0.28186,0.24829,-10.00977,-18.49365,110.04639
3093,1.33032,-0.19434,0.17065,-6.53076,-19.16504,122.98584
3102,1.28064,-0.07617,0.12671,-6.71387,-18.18848,126.46484
3111,1.21924,0.02136,0.08728,-7.56836,-17.94434,121.03271
3120,1.11865,0.03137,0.02051,-6.40869,-20.1416,107.84912
3129,0.9729,-0.05933,-0.05933,-6.40869,-24.59717,76.11084
3138,0.80908,-0.19592,-0.09827,-9.70459,-34.42383,66.89453
3147,0.65405,-0.32678,-0.10352,-15.01465,-38.75732,64.45313
3156,0.52441,-0.41333,-0.0863,-13.67187,-42.60254,67.44385
3165,0.41833,-0.47083,-0.08289,-10.37598,-45.53223,72.99805
3174,0.47351,-0.40979,-0.04687,-7.20215,-47.24121,77.20947
3182,0.47351,-0.40979,-0.01563,-3.17383,-49.86572,75.8667
3191,0.65588,-0.2937,-0.02332,0.48828,-54.13818,67.0166
3199,0.64319,-0.2937,-0.02332,1.64795,-56.88477,52.12402
3208,0.71179,-0.22778,0.02222,2.31934,-57.12891,33.87451
3216,0.77075,-0.19568,0.08911,2.31934,-57.12891,14.34326
3224,0.7998,-0.20312,0.1449,4.94385,-54.62646,14.34326
3232,0.79309,-0.22266,0.18921,8.11768,-47.72949,-3.96729
3241,0.80249,-0.24146,0.22888,11.2915,-36.43799,-18.12744
3251,0.83374,-0.24646,0.24292,30.76172,-11.16943,-34.11865
3261,0.97388,-0.13379,0.27295,24.4751,0,-39.91699
3270,1.07324,-0.0835,0.27551,30.27344,8.72803,-47.05811
3279,1.1748,-0.0332,0.28992,35.27832,14.28223,-57.00684
3287,1.27258,-0.00586,0.33105,38.20801,16.47949,-69.33594
3295,1.27258,-0.00586,0.4248,41.19873,16.72363,-83.25195
3304,1.4209,-0.01917,0.49927,45.28809,16.8457,-95.52002
3313,1.53394,-0.0907,0.57812,49.86572,19.47021,-103.8208
3322,1.65344,-0.14587,0.66809,53.03955,27.09961,-106.62842
3330,1.80969,-0.16772,0.76953,54.62646,39.91699,-104.00391
3339,1.97278,-0.13416,0.84729,56.7627,54.6875,-95.27588
3348,2.11182,0.01758,0.9292,58.59375,67.13867,-84.28955
3356,2.11182,0.19458,0.96582,61.82861,75.31738,-71.77734
3365,2.36108,0.39258,0.98267,64.5752,75.50049,-62.74414
3373,2.36108,0.39258,0.98267,64.08691,71.22803,-61.21826
3381,2.36841,0.58484,1.02625,64.08691,71.22803,-64.7583
3389,2.26123,0.67847,1.03357,62.74414,67.62695,-64.7583
3397,2.0647,0.68494,0.97668,59.69238,70.49561,-67.93213
3405,1.83606,0.66113,0.85278,52.79541,82.33643,-66.58936
3414,1.63635,0.65515,0.74048,41.25977,99.06006,-60.91309
3422,1.43225,0.6405,0.55029,30.0293,111.75537,-52.55127
3430,1.28284,0.6377,0.41406,19.40918,115.66162,-42.90771
3438,1.1333,0.5957,0.2522,13.48877,103.88184,-36.56006
3446,0.98169,0.49805,0.13135,10.0708,80.13916,-33.87451
3454,0.83264,0.41614,0.0907,5.06592,48.64502,-31.37207
3463,0.67273,0.3446,0.10144,1.34277,15.44189,-28.68652
3472,0.49182,0.29846,0.14685,0.85449,-13.24463,-24.90234
3481,0.30371,0.28601,0.18433,1.77002,-36.31592,-18.85986
3490,0.146,0.3031,0.22278,3.41797,-52.79541,-10.68115
3499,0.03137,0.31116,0.25403,4.63867,-57.80029,-3.78418
3507,-0.04602,0.31726,0.27319,3.479,-50.59814,1.40381
3515,-0.10156,0.33325,0.27869,0.06104,-33.63037,5.00488
3523,-0.13342,0.33997,0.25891,-2.13623,-13.06152,7.08008
3531,-0.15295,0.33362,0.20166,-2.80762,2.92969,7.26318
3540,-0.19824,0.33704,0.14429,-2.2583,12.69531,5.67627
3548,-0.23254,0.32764,0.08984,-0.67139,15.80811,4.15039
3556,-0.25977,0.31274,0.02942,1.46484,15.25879,3.11279
3564,-0.25977,0.31274,0.02942,2.38037,14.34326,1.0376
3572,-0.27795,0.29553,-0.00769,2.38037,14.34326,-14.5874
3580,-0.30872,0.30676,-0.0238,2.99072,13.79395,-1.34277
3588,-0.31287,0.30151,-0.05298,3.90625,13.42773,-2.01416
3596,-0.302,0.29749,-0.10437,5.18799,13.24463,-2.13623
3604,-0.28101,0.31079,-0.14111,3.72314,14.4043,-2.80762
3612,-0.23486,0.32898,-0.14587,0.06104,16.41846,-3.41797
3621,-0.18335,0.33838,-0.15491,-2.68555,17.8833,-4.45557
3629,-0.12317,0.3363,-0.16309,-3.96729,18.49365,-5.85937
3637,-0.04041,0.32922,-0.18127,-5.37109,19.16504,-6.89697
3645,0.05212,0.33508,-0.17786,-8.54492,19.16504,-7.20215
3653,0.18762,0.35571,-0.13696,-12.63428,18.61572,-6.46973
3661,0.34192,0.3811,-0.08118,-16.23535,15.80811,-5.24902
3669,0.51855,0.39856,-0.01416,-19.16504,10.86426,-3.05176
3677,0.51855,0.39856,-0.01416,-21.05713,3.78418,2.38037
3685,0.7179,0.40674,0.04712,-21.05713,3.78418,2.38037
3693,0.9425,0.41101,0.09204,-22.58301,-5.24902,12.146
3701,1.18677,0.44763,0.1748,-25.63477,-16.17432,24.53613
3709,1.44482,0.48474,0.27148,-27.70996,-29.90723,36.25488
3718,1.69043,0.54712,0.41064,-27.64893,-47.9126,44.49463
3726,1.8772,0.59473,0.53955,-23.80371,-68.2373,47.79053
3734,2.00098,0.52942,0.62659,-17.15088,-86.73096,44.67773
3742,2.06128,0.40381,0.68909,-13.06152,-97.71729,38.26904
3750,2.08276,0.29138,0.755,-13.3667,-95.94727,35.7666
3758,2.07263,0.1925,0.77075,-14.89258,-80.44434,39.67285
3766,2.05627,0.11584,0.75244,-16.35742,-54.38232,45.8374
3774,2.03723,0.04895,0.70593,-16.41846,-29.23584,51.87988
3782,2.00537,-0.00806,0.62793,-13.30566,-13.67187,55.96924
3790,2.00537,-0.00806,0.62793,-8.42285,-8.8501,58.10547
3798,1.94861,-0.06042,0.55286,-8.42285,-8.8501,58.10547
3806,1.88403,-0.08508,0.50256,-3.2959,-11.65771,60.18066
3815,1.80322,-0.10913,0.44727,1.34277,-17.02881,61.21826
3823,1.68896,-0.11682,0.39368,3.66211,-20.20264,62.31689
3832,1.5542,-0.09985,0.33484,4.15039,-19.104,64.08691
3840,1.39624,-0.10559,0.23755,3.66211,-14.64844,65.12451
3848,1.22717,-0.0979,0.14246,1.46484,-8.72803,66.22314
3856,1.07068,-0.10486,0.04932,-1.34277,-4.15039,67.13867
3865,0.91711,-0.11548,-0.04431,-3.41797,-2.86865,66.28418
3874,0.76318,-0.13843,-0.12781,-5.43213,-5.06592,63.35449
3883,0.63037,-0.17078,-0.18982,-7.44629,-10.98633,60.18066
3892,0.51111,-0.19849,-0.22754,-10.19287,-19.59229,56.64063
3901,0.42078,-0.23694,-0.24805,-12.39014,-29.1748,53.52783
3909,0.34668,-0.25793,-0.25073,-14.16016,-37.96387,51.94092
3918,0.31311,-0.2594,-0.23328,-15.44189,-44.86084,51.94092
3927,0.29517,-0.25525,-0.22461,-15.80811,-49.56055,51.26953
3935,0.29138,-0.2561,-0.21143,-16.29639,-51.57471,49.92676
3944,0.323,-0.24182,-0.18091,-18.06641,-50.78125,48.03467
3953,0.38367,-0.19678,-0.13318,-19.28711,-49.07227,44.92188
3962,0.46326,-0.14014,-0.08679,-18.61572,-47.79053,40.03906
3971,0.52661,-0.09924,-0.05786,-16.05225,-47.05811,32.89795
3980,0.59412,-0.08887,-0.02649,-13.85498,-46.56982,23.19336
3989,0.65198,-0.0802,0.02661,-11.90186,-44.73877,12.08496
3998,0.71655,-0.06738,0.0979,-10.37598,-41.50391,-8.91113
4007,0.77881,-0.05945,0.18127,-2.50244,-30.82275,-19.16504
4015,0.85193,-0.04395,0.25085,-2.50244,-30.82275,-19.16504
4024,0.94458,-0.03088,0.31824,1.64795,-22.03369,-38.63525
4033,1.04773,-0.02722,0.3866,5.79834,-1.70898,-46.81396
4042,1.17395,-0.03223,0.46045,12.45117,7.8125,-54.26025
4050,1.29956,-0.03223,0.52917,12.45117,7.8125,-61.88965
4058,1.4187,-0.05237,0.58862,16.11328,16.78467,-61.88965
4066,1.58582,-0.09277,0.67383,19.34814,26.79443,-69.2749
4074,1.78296,-0.13342,0.74414,23.4375,38.14697,-75.19531
4082,1.97791,-0.14246,0.78821,28.68652,49.92676,-78.30811
4091,2.15955,-0.09717,0.8125,32.10449,62.68311,-78.97949
4100,2.32458,0.021,0.85071,32.89795,74.40186,-77.45361
4108,2.46118,0.15735,0.8949,33.56934,81.97021,-75.80566
4117,2.51221,0.27002,0.91003,36.01074,83.80127,-76.59912
4126,2.50354,0.33997,0.92261,37.59766,81.17676,-79.22363
4134,2.4303,0.4071,0.95471,37.17041,78.00293,-83.43506
4142,2.29126,0.42664,0.9447,35.82764,78.125,-87.52441
4150,2.10144,0.40283,0.88025,33.5083,83.12988,-89.59961
4162,1.89001,0.3429,0.77734,28.19824,92.77344,-88.62305
4170,1.66907,0.24988,0.63379,21.72852,103.8208,-83.25195
4178,1.4729,0.15588,0.48059,13.30566,112.18262,-75.50049
4186,1.28198,0.07861,0.33069,5.18799,112.97607,-65.49072
4195,1.0741,-0.03284,0.16296,-1.40381,103.94287,-52.79541
4203,0.88147,-0.11047,0.09167,-9.09424,88.07373,-36.25488
4212,0.66626,-0.16565,0.02917,-14.09912,63.41553,-16.96777
4221,0.48938,-0.04431,0.08386,-16.17432,36.13281,5.06592
4230,0.47729,0.16003,0.17505,-14.22119,10.43701,24.16992
4239,0.4115,0.28687,0.1543,-5.5542,-9.15527,26.9165
4248,0.32812,0.33582,0.17883,-1.40381,-18.9209,16.11328
4257,0.2312,0.3208,0.22046,-1.58691,-22.03369,4.63867
4266,0.09265,0.37268,0.25378,-1.40381,-19.04297,-1.09863
4274,0.02344,0.40015,0.22583,-0.36621,-11.1084,1.64795
4282,-0.05786,0.44104,0.18396,-1.52588,-0.79346,3.2959
4292,-0.1311,0.52124,0.21265,-6.65283,11.59668,0.54932
4301,-0.20129,0.56958,0.21729,-8.66699,20.62988,-4.15039
4309,-0.27795,0.59851,0.18823,-6.5918,25.75684,-11.59668
4318,-0.35583,0.59717,0.15051,-5.31006,28.38135,-20.32471
4327,-0.41846,0.57275,0.11609,-5.7373,29.41895,-27.09961
4336,-0.45117,0.57166,0.09741,-6.7749,27.83203,-30.39551
4346,-0.45422,0.58923,0.0769,-10.98633,18.98193,-30.2124
4356,-0.42468,0.7085,0.08252,-13.91602,16.35742,-29.11377
4365,-0.38171,0.74536,0.06274,-17.02881,15.93018,-28.9917
4373,-0.31067,0.77844,0.07178,-22.76611,17.08984,-28.74756
4382,-0.19177,0.80713,0.09937,-28.68652,17.45605,-26.24512
4390,-0.19177,0.85327,0.1405,-32.83691,15.68604,-23.31543
4399,0.13208,0.90173,0.18823,-35.64453,12.08496,-21.11816
4408,0.30701,0.90625,0.22766,-37.71973,6.83594,-20.99609
4417,0.45874,0.82397,0.22986,-39.30664,-0.24414,-23.62061
4426,0.58667,0.71423,0.27539,-43.15186,-8.78906,-25.63477
4435,0.71021,0.57495,0.32922,-45.53223,-19.34814,-23.25439
4444,0.79517,0.40771,0.33801,-43.76221,-30.51758,-16.8457
4453,0.90051,0.25439,0.34778,-42.3584,-38.51318,-6.95801
4462,1.05359,0.1582,0.40747,-43.64014,-42.96875,6.53076
4471,1.25977,0.05957,0.44336,-41.62598,-46.81396,21.66748
4480,1.45447,-0.0177,0.45581,-35.82764,-52.06299,33.02002
4489,1.68457,-0.21143,0.43262,-27.89307,-56.70166,41.87012
4498,1.88025,-0.45837,0.40942,-22.3999,-61.2793,47.79053
4507,2.06519,-0.62512,0.46143,-21.3623,-64.7583,55.48096
4516,2.2384,-0.64319,0.5437,-21.60645,-66.77246,68.60352
4525,2.38501,-0.52112,0.63574,-20.32471,-66.34521,82.39746
4534,2.50903,-0.33948,0.69385,-17.51709,-63.65967,91.30859
4543,2.51404,-0.20422,0.66992,-12.45117,-59.32617,90.20996
4552,2.43652,-0.17371,0.57275,-7.87354,-52.97852,81.66504
4560,2.29041,-0.22742,0.4198,-5.67627,-44.6167,72.32666
4568,2.12036,-0.26135,0.27722,-7.44629,-36.13281,66.16211
4576,1.94836,-0.27124,0.12573,-10.0708,-28.68652,62.74414
4584,1.76062,-0.27734,-0.02698,-12.08496,-24.29199,59.50928
4592,1.53625,-0.32849,-0.20801,-13.79395,-25.45166,56.27441
4600,1.35461,-0.25879,-0.18481,-17.8833,-31.79932,53.77197
4608,1.20154,-0.21448,-0.22986,-18.12744,-45.28809,51.87988
4618,1.01843,-0.14075,-0.25159,-15.74707,-56.64063,42.78564
4626,0.85034,-0.09619,-0.21863,-16.72363,-64.39209,30.39551
4634,0.71375,-0.13525,-0.21497,-17.39502,-68.11523,19.59229
4642,0.58875,-0.17725,-0.2085,-17.7002,-68.0542,9.70459
4651,0.47754,-0.1936,-0.18921,-18.43262,-65.85693,3.90625
4659,0.47754,-0.1936,-0.18921,-16.54053,-63.90381,4.02832
4667,0.43164,-0.18103,-0.19165,-16.54053,-48.27881,5.79834
4675,0.40649,-0.1084,-0.22058,-11.90186,-61.09619,5.79834
4683,0.39185,-0.03516,-0.25586,-7.38525,-53.28369,5.12695
4691,0.42187,0.03491,-0.2323,-5.49316,-40.16113,0.73242
4699,0.4458,0.07324,-0.1936,-4.08936,-28.80859,-8.30078
4707,0.45532,0.04407,-0.16406,-0.42725,-21.78955,-21.72852
4715,0.46265,0.00085,-0.10449,3.11279,-17.8833,-34.48486
4723,0.49548,-0.03564,-0.01306,5.98145,-15.74707,-44.37256
4731,0.54932,-0.07239,0.08557,11.16943,-14.28223,-52.24609
4740,0.62134,-0.12292,0.1637,18.49365,-12.20703,-58.1665
4748,0.72266,-0.17468,0.25049,23.98682,-8.17871,-62.01172
4756,0.85583,-0.2052,0.37195,26.9165,-1.77002,-63.04932
4764,1.0199,-0.20251,0.50269,29.60205,7.44629,-63.11035
4772,1.0199,-0.20251,0.50269,34.60693,17.15088,-65.24658
4780,1.18433,-0.19055,0.6123,34.60693,17.15088,-69.15283
4788,1.32483,-0.18555,0.68237,41.1377,26.06201,-69.15283
4796,1.44409,-0.15967,0.74951,46.875,33.87451,-73.91357
4804,1.51794,-0.14673,0.80981,50.354,40.89355,-80.74951
4812,1.53088,-0.15076,0.85974,52.06299,47.60742,-88.37891
4820,1.526,-0.19385,0.88464,53.16162,54.32129,-92.5293
4828,1.47961,-0.24023,0.86023,54.07715,60.48584,-92.28516
4837,1.43127,-0.25085,0.85303,53.16162,65.61279,-87.58545
4845,1.40918,-0.24634,0.81458,52.49023,69.51904,-77.57568
4853,1.37683,-0.1842,0.75122,50.84229,70.55664,-64.94141
4862,1.38928,-0.10608,0.7251,44.18945,69.64111,-51.81885
4871,1.4021,-0.0127,0.703,36.86523,64.94141,-40.58838
4880,1.37378,0.07104,0.65698,30.51758,54.19922,-30.94482
4889,1.31555,0.15674,0.62744,22.58301,40.34424,-21.97266
4897,1.2406,0.24817,0.61267,14.52637,25.6958,-14.83154
4905,1.14197,0.29492,0.55444,8.36182,10.80322,-12.20703
4914,1.00879,0.28198,0.50415,2.31934,-2.80762,-14.09912
4922,0.84229,0.21814,0.4718,-3.23486,-16.11328,-16.96777
4931,0.66101,0.13806,0.42578,-5.7373,-30.63965,-16.47949
4940,0.48682,0.07471,0.37561,-6.46973,-43.82324,-10.49805
4950,0.33936,0.0415,0.34143,-8.05664,-53.10059,-0.48828
4959,0.24011,0.0459,0.323,-10.37598,-57.18994,12.75635
4968,0.16968,0.0813,0.32104,-12.93945,-57.25098,26.12305
4977,0.12854,0.11621,0.33313,-14.46533,-55.54199,38.14697
4988,0.0929,0.13977,0.30847,-14.83154,-52.67334,49.1333
4998,0.08057,0.18201,0.30103,-14.89258,-41.19873,69.58008
5007,0.13879,0.35437,0.31934,-14.09912,-35.09521,76.59912
5017,0.21338,0.43591,0.31543,-12.02393,-29.41895,79.3457
5026,0.26221,0.48621,0.31689,-10.0708,-23.55957,77.81982
5035,0.31372,0.49036,0.30188,-8.78906,-17.15088,74.09668
5044,0.3573,0.46655,0.27966,-8.17871,-9.15527,69.58008
5053,0.39026,0.4325,0.25757,-9.94873,0.30518,64.69727
5062,0.43494,0.39429,0.24182,-13.00049,10.98633,61.03516
5071,0.50122,0.36255,0.23071,-15.80811,20.62988,59.50928
5080,0.5675,0.36523,0.22961,-17.08984,27.89307,57.31201
5089,0.64417,0.38562,0.23755,-16.78467,32.2876,53.4668
5097,0.72852,0.34546,0.20715,-14.95361,34.30176,46.93604
5106,0.77148,0.32776,0.17053,-15.13672,36.49902,36.62109
5115,0.84961,0.25964,0.21265,-17.8833,40.46631,26.06201
5124,0.91858,0.19971,0.26794,-21.11816,42.3584,16.6626
5133,0.98804,0.14954,0.30017,-19.77539,41.80908,9.46045
5142,1.08655,0.10291,0.32471,-17.21191,40.2832,6.04248
5150,1.17627,0.10229,0.354,-15.01465,37.17041,3.2959
5159,1.2666,0.1051,0.40271,-12.93945,32.71484,-0.30518
5167,1.3374,0.07593,0.40625,-8.97217,26.79443,-4.57764
5175,1.39099,0.05469,0.40955,-5.06592,20.62988,-10.19287
5184,1.4248,0.04419,0.43262,-3.05176,13.3667,-15.38086
5193,1.4563,0.03503,0.44861,0.30518,4.3335,-19.16504
5201,1.46716,-0.00745,0.4115,5.67627,-3.84521,-22.15576
5209,1.47217,-0.06604,0.39722,7.93457,-9.0332,-24.78027
5217,1.47546,-0.13257,0.39465,8.42285,-12.63428,-26.55029
5226,1.46997,-0.1792,0.38831,9.70459,-15.25879,-26.55029
5235,1.44995,-0.19727,0.39026,11.1084,-16.41846,-25.5127
5244,1.41162,-0.22742,0.36768,13.06152,-15.86914,-23.98682
5253,1.33789,-0.26233,0.32385,14.28223,-14.70947,-20.99609
5261,1.25757,-0.27112,0.29431,12.81738,-13.18359,-14.95361
5270,1.19788,-0.23425,0.27649,10.92529,-12.75635,-5.7373
5278,1.14233,-0.15063,0.24707,9.58252,-14.22119,4.3335
5286,1.0968,-0.00671,0.24719,8.11768,-15.50293,15.19775
5294,1.05798,0.15552,0.2478,7.20215,-15.13672,24.59717
5302,1.05798,0.15552,0.2478,8.54492,-13.18359,28.32031
5310,0.98572,0.28613,0.21143,8.54492,-13.18359,26.79443
5318,0.89319,0.36047,0.14905,9.76562,-10.55908,26.79443
5326,0.78162,0.37085,0.0697,10.13184,-8.91113,22.03369
5334,0.66101,0.33105,-0.01331,9.70459,-10.37598,16.60156
5342,0.52283,0.2876,-0.08765,8.11768,-13.97705,12.3291
5350,0.39844,0.24512,-0.15894,6.71387,-18.55469,11.04736
5358,0.29089,0.21582,-0.23083,4.5166,-22.82715,12.20703
5367,0.19775,0.22119,-0.26538,0.06104,-25.57373,14.52637
5376,0.13733,0.23059,-0.28064,-4.5166,-27.52686,17.39502
5384,0.09094,0.23474,-0.27539,-8.23975,-29.23584,18.43262
5392,0.05261,0.22949,-0.24353,-11.2915,-32.53174,17.63916
5400,0.0271,0.21106,-0.20496,-11.53564,-38.57422,16.05225
5408,0.0011,0.18933,-0.16919,-10.37598,-46.56982,12.75635
5416,-0.02515,0.15515,-0.12561,-9.33838,-53.28369,8.23975
5424,-0.0564,0.10461,-0.07776,-8.54492,-56.15234,3.35693
5432,-0.03674,0.10461,-0.07776,-7.50732,-55.9082,-0.48828
5440,-0.00769,0.03052,-0.0332,-7.50732,-55.9082,-0.48828
5448,0.03369,-0.02844,-0.00964,-6.16455,-53.6499,-2.44141
5456,0.11597,-0.10437,0.01794,-5.79834,-49.56055,-3.23486
5464,0.21814,-0.20142,0.05884,-5.92041,-45.34912,-3.35693
5472,0.35645,-0.31799,0.1239,-5.61523,-42.72461,-2.74658
5480,0.53552,-0.422,0.22876,-4.27246,-43.88428,-0.85449
5488,0.74902,-0.51599,0.38196,-1.58691,-48.9502,-0.18311
5496,0.99341,-0.61035,0.5752,3.66211,-56.33545,-1.77002
5504,1.2572,-0.69812,0.80078,11.90186,-63.96484,-4.88281
5512,1.5293,-0.76379,1.04565,21.85059,-68.29834,-8.72803
5524,1.7948,-0.78784,1.31445,32.4707,-65.7959,-12.3291
5532,2.03601,-0.75903,1.59363,42.11426,-55.54199,-15.01465
5541,2.26318,-0.69531,1.86267,51.81885,-37.10938,-17.7002
5550,2.44299,-0.61182,2.04773,61.70654,-11.2915,-20.1416
5558,2.57373,-0.479,2.17615,67.93213,20.56885,-21.66748
5566,2.68481,-0.26746,2.22388,69.82422,57.18994,-20.26367
5574,2.75964,-0.01843,2.1499,70.67871,90.57617,-16.96777
5582,2.74939,0.22009,1.99707,70.55664,114.37988,-15.56396
5590,2.64404,0.37476,1.79077,69.0918,123.9624,-17.82227
5598,2.41272,0.42566,1.55493,68.11523,118.95752,-23.13232
5606,2.41272,0.42566,1.55493,67.26074,102.6001,-27.89307
5614,2.0686,0.36121,1.29395,67.26074,102.6001,-27.58789
5622,1.67969,0.27368,1.05396,62.92725,83.8623,-27.58789
5630,1.33423,0.23132,0.86792,54.99268,68.2373,-22.03369
5638,1.06018,0.31555,0.72192,47.30225,58.28857,-15.80811
5646,0.88574,0.35937,0.57605,41.1377,55.66406,-15.86914
5654,0.703,0.30652,0.3999,37.04834,56.03027,-23.98682
5662,0.5033,0.22266,0.23413,33.20313,53.83301,-32.77588
5670,0.30554,0.14404,0.0896,29.47998,47.97363,-35.09521
5678,0.11914,0.10876,-0.01953,26.00098,38.63525,-30.15137
5686,-0.04919,0.1189,-0.06934,22.09473,27.83203,-20.56885
5694,-0.17383,0.17346,-0.05017,18.43262,16.35742,-9.70459
5702,-0.17383,0.26331,-0.01074,18.67676,5.98145,-1.09863
5710,-0.26099,0.26331,-0.01074,22.46094,-1.70898,3.17383
5718,-0.3457,0.34668,0.01111,22.46094,-1.70898,3.17383
5726,-0.42468,0.38916,0.0166,26.61133,-4.5166,3.23486
5734,-0.50525,0.39478,0.00867,29.60205,-2.2583,0.79346
5742,-0.58215,0.38623,-0.00427,30.63965,5.12695,-1.52588
5750,-0.63806,0.36926,-0.05066,30.88379,17.21191,-1.95312
5758,-0.67346,0.34277,-0.11633,29.84619,32.59277,-0.18311
5766,-0.66626,0.32471,-0.17651,26.18408,48.76709,3.2959
5774,-0.62122,0.30359,-0.24048,21.91162,64.63623,8.36182
5782,-0.54663,0.30273,-0.31458,17.27295,77.39258,13.91602
5790,-0.44922,0.32056,-0.36768,11.16943,85.63232,18.24951
5798,-0.35095,0.32251,-0.4187,4.5166,87.82959,20.69092
5806,-0.35095,0.32251,-0.44995,-1.64795,84.47266,22.09473
5814,-0.24463,0.3175,-0.44409,-1.64795,68.84766,22.76611
5822,-0.13428,0.31543,-0.43579,-8.91113,77.45361,22.76611
5830,0.01306,0.32178,-0.39673,-16.90674,68.48145,24.71924
5838,0.18359,0.33643,-0.32605,-25.14648,58.77686,29.05273
5846,0.41345,0.39746,-0.22266,-32.59277,49.80469,35.94971
5854,0.70251,0.46082,-0.13489,-37.10938,40.71045,44.18945
5862,1.05945,0.48889,-0.05896,-38.75732,28.13721,53.34473
5870,1.39697,0.55273,0.01025,-38.39111,9.64355,62.80518
5878,1.73755,0.64819,0.12256,-37.35352,-14.46533,72.32666
5886,2.04639,0.72241,0.23694,-33.69141,-46.44775,77.39258
5894,2.2301,0.78247,0.38977,-30.70068,-82.4585,72.69287
5902,2.302,0.71631,0.56824,-29.96826,-114.25781,59.69238
5910,2.302,0.71631,0.56824,-31.79932,-135.80322,43.21289
5918,2.26843,0.50659,0.74182,-31.79932,-135.80322,27.58789
5926,2.12585,0.27808,0.92444,-37.71973,-142.94434,31.18896
5934,1.99194,0.07751,1.10547,-42.5415,-131.5918,32.59277
5942,1.90112,-0.02844,1.21887,-40.71045,-104.61426,45.77637
5951,1.83618,-0.08447,1.17871,-31.98242,-69.2749,63.59863
5959,1.81323,-0.0968,1.06152,-23.68164,-31.73828,82.15332
5967,1.79968,-0.06006,0.94104,-18.73779,0.85449,97.35107
5975,1.75806,-0.00159,0.80298,-12.69531,23.49854,107.1167
5983,1.67786,0.00745,0.62708,-4.27246,34.97314,112.60986
5991,1.57251,0.02002,0.47144,1.28174,38.51318,114.56299
5999,1.46716,0.03455,0.34656,3.41797,37.8418,113.8916
6007,1.3479,0.04663,0.25049,4.5166,32.4707,110.65674
6015,1.21558,0.05273,0.18396,4.63867,23.62061,105.22461
6023,1.21558,0.05273,0.18396,5.31006,13.06152,99.97559
6031,1.08997,0.02893,0.1178,5.31006,13.06152,99.97559
6039,0.98462,-0.01904,0.05334,5.31006,1.46484,96.0083
6047,0.88391,-0.06018,0.01465,2.92969,-8.8501,92.34619
6056,0.80811,-0.07813,0.02136,-2.01416,-17.27295,88.0127
6064,0.75635,-0.09399,0.03613,-5.61523,-23.98682,82.33643
6072,0.70947,-0.12451,0.02844,-7.14111,-29.66309,74.89014
6080,0.65857,-0.1272,0.0426,-9.64355,-33.81348,65.73486
6088,0.61536,-0.12915,0.07129,-11.53564,-36.31592,55.9082
6096,0.57153,-0.13806,0.08704,-11.84082,-37.04834,45.28809
6104,0.52466,-0.14697,0.09216,-10.86426,-36.56006,34.17969
6112,0.474,-0.15601,0.09607,-9.58252,-34.729,23.19336
6120,0.44312,-0.18274,0.09607,-8.17871,-31.79932,11.96289
6128,0.39807,-0.20386,0.08484,-6.71387,-28.50342,0.54932
6136,0.39807,-0.20386,0.08484,-5.49316,-24.53613,-9.8877
6144,0.37732,-0.22278,0.08179,-5.49316,-24.53613,-19.47021
6152,0.36023,-0.23022,0.08887,-3.96729,-19.71436,-19.47021
6160,0.36438,-0.23828,0.09595,-1.64795,-14.89258,-27.70996
6168,0.38306,-0.2406,0.09314,1.83105,-9.94873,-34.97314
6176,0.41504,-0.22839,0.08936,5.18799,-5.7373,-41.93115
6184,0.45471,-0.1991,0.09802,7.87354,-1.58691,-49.25537
6192,0.5177,-0.16736,0.11292,11.2915,2.2583,-56.15234
6200,0.61975,-0.14099,0.14026,14.5874,4.5166,-62.80518
6208,0.75256,-0.10864,0.19324,18.67676,4.15039,-69.2749
6216,0.93213,-0.11523,0.26331,24.71924,0.85449,-74.95117
6224,1.14722,-0.13867,0.36902,31.61621,-3.96729,-81.17676
6232,1.14722,-0.1803,0.47131,40.03906,-9.09424,-87.21924
6240,1.40137,-0.1803,0.47131,47.24121,-12.08496,-90.57617
6248,1.67688,-0.2262,0.58032,47.24121,-12.08496,-90.57617
6256,1.96179,-0.23535,0.72717,50.59814,-7.93457,-90.69824
6264,2.20667,-0.14465,0.89294,51.08643,4.45557,-88.86719
6272,2.4021,-0.01379,0.99854,51.94092,22.82715,-86.73096
6280,2.54871,0.12268,1.03674,52.06299,43.396,-87.1582
6288,2.65369,0.29163,1.06396,47.72949,63.35449,-87.52441
6296,2.71594,0.50183,1.07837,40.52734,78.24707,-85.9375
6304,2.7063,0.72168,1.03943,33.3252,87.40234,-84.59473
6312,2.63391,0.9314,1.005,25.57373,91.61377,-85.51025
6321,2.4585,1.04346,0.92139,19.28711,90.57617,-92.04102
6330,2.16943,1.0033,0.77283,14.77051,84.59473,-103.33252
6338,1.82593,0.85596,0.62256,8.8501,75.62256,-112.79297
6346,1.47473,0.67651,0.49646,1.77002,64.51416,-116.1499
6355,1.13391,0.48804,0.39111,-4.27246,51.63574,-112.854
6364,0.83289,0.33679,0.33813,-9.64355,38.20801,-103.02734
6373,0.58643,0.21252,0.32385,-13.12256,25.08545,-87.89063
6382,0.37915,0.12256,0.33264,-14.16016,12.69531,-69.82422
6390,0.198,0.11328,0.37,-12.75635,2.44141,-50.354
6398,0.08887,0.09973,0.40002,-9.27734,-3.66211,-30.57861
6406,-0.02136,0.11841,0.4165,-4.76074,-4.27246,-13.30566
6414,-0.02136,0.11841,0.4165,0,0.97656,2.2583
6422,-0.08459,0.13708,0.42542,0,0.97656,15.68604
6430,-0.14209,0.1488,0.40564,4.45557,11.23047,15.68604
6438,-0.1897,0.16443,0.37146,8.17871,25.81787,26.12305
6446,-0.22351,0.18286,0.31287,11.41357,42.60254,34.11865
6454,-0.26172,0.21338,0.23462,14.16016,56.51855,39.73389
6462,-0.30066,0.21973,0.12451,15.68604,64.81934,44.92188
6470,-0.30322,0.23572,0.06287,16.6626,69.45801,48.76709
6478,-0.31396,0.2489,0.0166,18.31055,68.84766,49.25537
6486,-0.32031,0.2478,-0.03149,21.72852,63.23242,46.93604
6494,-0.33679,0.23474,-0.08423,25.39063,55.78613,42.17529
6502,-0.34546,0.20593,-0.14136,26.97754,48.33984,36.9873
6510,-0.34546,0.17468,-0.18726,24.23096,42.48047,32.04346
6518,-0.34363,0.17261,-0.18726,24.23096,38.69629,27.40479
6526,-0.3291,0.15295,-0.20483,18.61572,38.69629,27.40479
6534,-0.30725,0.12683,-0.22375,12.69531,34.85107,23.07129
6542,-0.27502,0.10803,-0.229,7.50732,30.2124,19.34814
6550,-0.22607,0.07983,-0.24023,3.479,24.71924,15.68604
6558,-0.17529,0.06213,-0.24109,-0.36621,18.00537,12.02393
6566,-0.11218,0.05896,-0.2345,-4.27246,11.59668,10.49805
6578,-0.0166,0.0752,-0.24036,-8.30078,5.5542,10.68115
6586,0.10852,0.10645,-0.23792,-14.16016,1.2207,11.59668
6594,0.29163,0.13428,-0.19434,-22.58301,-2.31934,13.79395
6602,0.50024,0.15479,-0.16174,-30.33447,-7.14111,17.63916
6610,0.75818,0.16907,-0.11389,-38.26904,-11.90186,22.82715
6618,1.06543,0.17896,-0.03992,-46.14258,-16.17432,29.1748
6626,1.41113,0.19507,0.03735,-50.84229,-22.15576,37.41455
6634,1.73889,0.27173,0.13513,-51.08643,-32.83691,47.97363
6642,2.04065,0.37964,0.23865,-46.69189,-49.68262,59.32617
6650,2.32886,0.505,0.37708,-40.2832,-70.86182,67.44385
6658,2.56995,0.65259,0.54333,-32.10449,-93.32275,70.49561
6666,2.56995,0.65259,0.54333,-21.24023,-114.13574,69.0918
6674,2.71887,0.80505,0.67078,-21.24023,-114.13574,61.03516
6682,2.74646,0.91736,0.80139,-15.19775,-122.86377,61.03516
6690,2.69324,0.90076,0.92102,-15.625,-113.03711,47.48535
6698,2.53357,0.7738,0.95959,-18.31055,-89.05029,31.00586
6706,2.3269,0.56555,0.90125,-18.85986,-58.83789,18.37158
6714,2.1051,0.34094,0.78149,-17.51709,-30.82275,12.3291
6722,1.91235,0.1792,0.66479,-15.31982,-9.15527,13.91602
6731,1.75208,0.08191,0.53235,-11.23047,4.08936,21.24023
6739,1.63232,0.03784,0.40637,-7.08008,11.47461,31.25
6747,1.52527,0.02795,0.30225,-5.49316,15.44189,41.01563
6755,1.41589,0.03821,0.2146,-5.37109,16.11328,48.27881
6764,1.29016,0.05786,0.12854,-6.16455,14.28223,52.18506
6772,1.15479,0.08301,0.0686,-8.30078,10.92529,53.22266
6781,1.02771,0.09375,0.0293,-11.65771,6.40869,51.87988
6790,0.8999,0.07922,-0.00854,-14.22119,1.0376,47.9126
6799,0.76807,0.04895,-0.03296,-16.72363,-5.5542,42.3584
6807,0.64294,0.00708,-0.03955,-19.40918,-12.87842,37.23145
6815,0.53003,-0.0437,-0.04724,-20.62988,-21.05713,33.38623
6823,0.44287,-0.10095,-0.05151,-20.81299,-28.50342,31.06689
6831,0.44287,-0.10095,-0.05151,-21.24023,-33.02002,28.74756
6839,0.37195,-0.14258,-0.0426,-21.24023,-33.02002,28.74756
6847,0.31873,-0.17053,-0.02051,-21.30127,-35.46143,26.00098
6856,0.29016,-0.18616,0.00146,-19.53125,-36.68213,22.27783
6864,0.26514,-0.20178,-0.00415,-16.17432,-37.35352,16.8457
6872,0.24963,-0.21851,0,-14.03809,-36.9873,10.25391
6881,0.25,-0.22681,0.02087,-12.57324,-36.43799,3.17383
6890,0.26562,-0.22449,0.04932,-10.37598,-36.68213,-3.66211
6899,0.28357,-0.22205,0.06091,-7.50732,-37.29248,-11.71875
6907,0.30127,-0.20679,0.08972,-5.31006,-37.10938,-21.60645
6915,0.3175,-0.21582,0.125,-3.17383,-36.37695,-31.98242
6923,0.33484,-0.22693,0.15564,0.30518,-34.97314,-41.3208
6931,0.3717,-0.23206,0.19556,4.3335,-32.95898,-49.01123
6939,0.43408,-0.24097,0.24377,9.33838,-30.76172,-54.93164
6947,0.53186,-0.24512,0.30615,15.56396,-29.35791,-59.75342
6955,0.67395,-0.24023,0.37585,23.13232,-29.05273,-63.65967
6963,0.87207,-0.24548,0.45154,30.63965,-29.84619,-67.44385
6971,1.12012,-0.2428,0.56763,38.08594,-31.18896,-70.25146
6979,1.12012,-0.2428,0.69263,45.59326,-31.86035,-73.6084
6987,1.38208,-0.23633,0.71533,45.59326,-16.23535,-76.84326
6995,1.646,-0.23755,0.87158,53.83301,-28.50342,-76.84326
7003,1.88525,-0.21533,1.02515,61.4624,-17.8833,-79.52881
7011,2.12073,-0.15662,1.1604,67.44385,-0.54932,-81.17676
7019,2.30798,-0.04016,1.23682,72.75391,21.3623,-82.39746
7027,2.44189,0.11096,1.23987,77.0874,43.76221,-83.37402
7036,2.51733,0.27979,1.18823,78.18604,64.02588,-84.47266
7044,2.53064,0.44653,1.11047,76.11084,80.93262,-85.57129
7053,2.47913,0.58997,1.01892,70.61768,91.4917,-86.85303
7061,2.34338,0.67871,0.90796,63.5376,95.8252,-89.29443
7069,2.1189,0.70276,0.76624,55.29785,95.76416,-93.13965
7077,1.82959,0.66223,0.5979,46.38672,92.16309,-94.60449
7085,1.51575,0.56616,0.4353,36.8042,84.7168,-92.77344
7093,1.18933,0.43079,0.29138,26.55029,72.75391,-88.37891
7101,0.87683,0.26538,0.18616,17.08984,55.96924,-80.44434
7109,0.8783,0.26538,0.18616,8.8501,35.7666,-67.87109
7117,0.59009,0.11963,0.13867,8.8501,35.7666,-67.87109
7125,0.34216,0.0481,0.15649,2.92969,13.5498,-50.23193
7133,0.14661,0.02698,0.20691,0.97656,-6.95801,-29.72412
7141,0.01819,0.0321,0.25464,1.89209,-22.2168,-8.60596
7149,-0.07056,0.07544,0.28796,3.72314,-29.90723,10.0708
7157,-0.12939,0.11902,0.30103,5.00488,-28.80859,27.34375
7165,-0.15649,0.15833,0.28711,5.24902,-19.89746,42.17529
7173,-0.17639,0.18835,0.24573,4.63867,-7.32422,54.01611
7181,-0.18689,0.21008,0.17822,4.02832,5.67627,63.78174
7189,-0.18542,0.22986,0.099,3.479,16.29639,70.86182
7197,-0.19141,0.25366,0.02551,2.99072,21.42334,75.19531
7205,-0.19141,0.25366,-0.03711,3.17383,20.62988,77.27051
7213,-0.19666,0.26501,-0.03711,3.17383,15.31982,77.94189
7221,-0.21155,0.26587,-0.10376,4.27246,15.31982,77.94189
7229,-0.23218,0.26648,-0.16394,4.39453,8.36182,77.39258
7237,-0.23804,0.25354,-0.20801,2.44141,1.28174,76.84326
7245,-0.24292,0.24792,-0.24219,0.12207,-4.15039,75.74463
7253,-0.24805,0.24023,-0.27686,-3.35693,-7.99561,73.73047
7261,-0.23364,0.2356,-0.30127,-9.64355,-10.68115,70.86182
7269,-0.20471,0.20557,-0.3042,-16.8457,-11.16943,66.8335
7277,-0.16504,0.17932,-0.29919,-23.31543,-12.08496,62.74414
7286,-0.12488,0.17371,-0.2771,-28.62549,-13.06152,59.2041
7294,-0.06189,0.17371,-0.26282,-32.34863,-13.91602,57.31201
7302,0.02661,0.20166,-0.25183,-36.25488,-13.67187,57.25098
7310,0.14429,0.23267,-0.22925,-42.48047,-11.71875,57.55615
7318,0.14429,0.26392,-0.18738,-50.59814,-9.70459,57.80029
7326,0.30859,0.26672,-0.18738,-50.59814,-8.91113,58.95996
7334,0.52258,0.33105,-0.1217,-58.10547,-8.91113,58.95996
7342,0.78381,0.41589,-0.03345,-64.39209,-10.25391,59.44824
7351,1.12866,0.50598,0.078,-68.17627,-14.4043,60.11963
7359,1.4989,0.56958,0.18616,-69.64111,-21.91162,60.2417
7367,1.87073,0.64465,0.33215,-71.10596,-33.02002,61.82861
7375,2.2207,0.81372,0.5498,-73.30322,-47.48535,65.49072
7383,2.49792,0.97217,0.75012,-70.25146,-63.90381,65.61279
7391,2.69592,1.0575,0.94312,-62.80518,-81.35986,56.88477
7400,2.77332,1.02051,1.11621,-54.50439,-96.80176,40.16113
7409,2.69592,0.91882,1.271,-45.6543,-106.20117,22.64404
7418,2.52185,0.7749,1.40625,-39.18457,-103.88184,10.68115
7426,2.30054,0.62866,1.46912,-32.10449,-85.87646,4.82178
7434,2.06885,0.48035,1.42883,-23.4375,-54.62646,4.02832
7442,1.85303,0.34827,1.27905,-15.38086,-16.8457,8.36182
7450,1.68921,0.24561,1.08984,-9.8877,19.40918,17.63916
7459,1.57434,0.19275,0.89343,-5.43213,47.9126,28.93066
7467,1.48523,0.16895,0.67676,-0.12207,62.62207,39.97803
7475,1.39319,0.16357,0.48145,4.39453,63.90381,49.07227
7483,1.39319,0.16357,0.3252,6.5918,55.11475,54.99268
7492,1.16284,0.19299,0.245,6.65283,40.22217,58.47168
7500,1.16284,0.19299,0.245,5.5542,22.82715,57.86133
7508,1.03357,0.21558,0.19312,5.5542,22.82715,57.86133
7516,0.89417,0.22388,0.16846,4.08936,7.08008,53.34473
7525,0.74097,0.20691,0.14148,2.19727,-4.27246,46.38672
7533,0.58691,0.14954,0.10876,-0.18311,-10.25391,38.94043
7541,0.43384,0.07434,0.06128,-3.54004,-12.69531,31.98242
7549,0.28491,0.00879,0.02747,-7.62939,-13.12256,26.06201
7557,0.16479,-0.06836,-0.02051,-10.19287,-14.16016,21.85059
7565,0.07495,-0.16003,-0.07617,-12.146,-17.33398,17.94434
7574,0.02148,-0.21936,-0.08313,-15.68604,-22.2168,13.30566
7582,0.00049,-0.27063,-0.0675,-16.96777,-29.66309,8.66699
7591,0.00317,-0.31128,-0.0459,-15.68604,-38.81836,3.11279
7599,0.01489,-0.33899,-0.01038,-13.06152,-47.30225,-4.02832
7608,0.03162,-0.38501,0.01465,-9.94873,-53.52783,-12.57324
7616,0.04102,-0.42029,0.04858,-6.65283,-57.25098,-22.15576
7624,0.05457,-0.45935,0.0918,-4.39453,-57.37305,-31.00586
7632,0.08179,-0.479,0.14844,-1.95312,-54.07715,-37.29248
7640,0.12,-0.50037,0.1814,1.58691,-48.52295,-40.58838
7648,0.12,-0.50037,0.1814,5.5542,-41.01563,-41.1377
7656,0.20874,-0.49451,0.22644,5.5542,-41.01563,-40.2832
7664,0.3252,-0.45068,0.27905,9.8877,-33.81348,-40.2832
7672,0.4939,-0.3844,0.36047,16.35742,-29.60205,-39.24561
7680,0.70215,-0.31555,0.4259,26.61133,-28.44238,-39.36768
7688,0.91907,-0.2356,0.47852,38.51318,-29.47998,-43.02979
7696,1.14294,-0.16455,0.55603,47.42432,-30.76172,-51.57471
7704,1.40344,-0.14722,0.67798,53.22266,-31.12793,-63.29346
7712,1.625,-0.16394,0.83032,57.86133,-30.15137,-76.17188
7720,1.83813,-0.22083,1.00635,63.90381,-27.16064,-85.9375
7728,2.0542,-0.24731,1.19592,71.5332,-20.56885,-90.271
7736,2.28894,-0.17859,1.39563,81.23779,-8.66699,-86.9751
7744,2.4762,-0.00146,1.53577,91.36963,7.8125,-80.44434
7752,2.4762,-0.00146,1.53577,99.60938,28.80859,-75.25635
7760,2.60266,0.22449,1.60059,99.60938,28.80859,-75.25635
7768,2.67017,0.41418,1.57092,103.27148,54.87061,-73.66943
7776,2.69226,0.55981,1.48584,100.03662,84.22852,-74.21875
7784,2.64966,0.70044,1.3446,91.24756,110.4126,-74.40186
7792,2.54065,0.80823,1.15393,79.83398,130.06592,-74.27979
7800,2.35583,0.8761,0.91724,66.8335,140.74707,-74.27979
7808,2.09387,0.91504,0.6748,51.69678,140.99121,-74.58496
7816,1.79346,0.89941,0.48132,36.25488,130.49316,-74.95117
7824,1.45447,0.81555,0.34827,22.70508,107.66602,-76.72119
7832,1.0946,0.68994,0.27173,13.5498,74.03564,-77.20947
7840,0.75159,0.55469,0.24036,7.32422,37.10938,-73.97461
7849,0.43713,0.45081,0.26953,2.2583,5.49316,-66.58936
7858,0.19568,0.38403,0.3269,-0.85449,-16.29639,-55.17578
7867,-0.02026,0.32007,0.3468,-0.36621,-27.40479,-42.05322
7876,-0.19116,0.27112,0.3623,-0.12207,-26.55029,-27.64893
7885,-0.29858,0.24011,0.36511,-0.79346,-15.80811,-10.98633
7894,-0.36987,0.23059,0.34302,-1.2207,0.06104,4.21143
7902,-0.41956,0.23962,0.29065,-0.54932,17.33398,17.45605
7911,-0.45105,0.25439,0.23047,0.30518,32.53174,28.01514
7920,-0.47095,0.26611,0.1604,2.44141,43.5791,35.5835
7929,-0.48157,0.2627,0.09009,5.61523,49.62158,39.67285
7938,-0.49365,0.25281,0.02905,9.64355,50.90332,41.50391
7947,-0.50085,0.22827,-0.03345,14.03809,48.15674,41.74805
7956,-0.50525,0.20923,-0.08716,17.94434,42.90771,41.38184
7965,-0.50952,0.19714,-0.13293,20.20264,37.71973,40.16113
7974,-0.49976,0.15271,-0.1864,19.77539,35.40039,38.94043
7982,-0.49768,0.15686,-0.21777,15.01465,36.25488,37.78076
7991,-0.47302,0.15417,-0.25781,9.46045,38.33008,37.59766
8000,-0.42432,0.17041,-0.29163,3.60107,40.2832,37.71973
8009,-0.36914,0.20654,-0.31738,-1.95312,40.71045,36.86523
8018,-0.28284,0.23291,-0.34692,-6.89697,39.42871,35.46143
8027,-0.19507,0.24219,-0.37061,-12.51221,35.09521,32.95898
8036,-0.1228,0.27075,-0.37744,-19.83643,28.86963,32.16553
8044,0.01147,0.3468,-0.33215,-30.27344,22.03369,37.10938
8052,0.25708,0.45654,-0.24939,-41.1377,16.05225,48.82813
8060,0.60461,0.65442,-0.11658,-51.63574,10.86426,64.33105
8068,1.05444,0.84973,0.01819,-57.86133,6.89697,81.23779
8076,1.58667,0.96875,0.09314,-59.32617,2.31934,94.05518
8084,2.10669,1.04663,0.14636,-60.85205,-2.38037,98.51074
8093,2.55029,1.08911,0.20886,-65.67383,-7.20215,94.9707
8102,2.83948,1.03992,0.31177,-70.43457,-16.72363,80.62744
8111,2.98926,0.8335,0.36365,-70.19043,-34.30176,59.38721
8119,3.03699,0.53711,0.43689,-68.11523,-59.63135,42.78564
8127,2.99988,0.35889,0.5614,-65.24658,-88.56201,36.86523
8135,2.90613,0.29993,0.6958,-59.69238,-111.69434,40.03906
8144,2.74207,0.27417,0.83191,-56.39648,-117.06543,43.09082
8152,2.74207,0.27417,0.95691,-55.96924,-104.00391,40.2832
8160,2.53394,0.21326,0.94836,-55.96924,-81.23779,33.3252
8168,2.30078,0.08276,1.00586,-53.16162,-81.23779,33.3252
8176,2.05579,-0.10217,0.98254,-45.41016,-56.82373,27.40479
8184,1.80432,-0.25464,0.9032,-35.94971,-34.66797,25.57373
8193,1.61829,-0.32104,0.828,-26.79443,-15.80811,29.41895
8202,1.46362,-0.29065,0.73621,-17.45605,-0.42725,35.94971
8211,1.31433,-0.24207,0.62378,-8.05664,11.47461,40.64941
8220,1.13647,-0.19763,0.5155,-0.12207,19.65332,42.11426
8229,0.96204,-0.16785,0.40149,6.65283,24.10889,41.99219
8237,0.78601,-0.15601,0.27307,11.47461,26.00098,40.77148
8245,0.61584,-0.13855,0.17053,13.3667,25.39063,38.87939
8253,0.48621,-0.12146,0.09888,12.75635,22.15576,36.92627
8261,0.37927,-0.11523,0.0542,11.90186,15.50293,33.81348
8270,0.27722,-0.13562,0.02454,11.59668,4.39453,28.56445
8279,0.18359,-0.17883,0.00452,11.65771,-8.66699,22.09473
8287,0.09668,-0.21094,0.02051,10.74219,-22.27783,15.19775
8295,0.02661,-0.24377,0.06555,11.35254,-34.79004,8.97217
8304,-0.0426,-0.27441,0.10864,14.83154,-44.7998,2.50244
8313,-0.10242,-0.32776,0.12329,19.53125,-50.90332,-2.2583
8322,-0.14746,-0.35547,0.13733,22.88818,-51.45264,-4.88281
8331,-0.14465,-0.37231,0.13525,25.32959,-47.48535,-6.46973
8340,-0.11365,-0.36169,0.12781,27.28271,-41.68701,-7.75146
8349,-0.05139,-0.3324,0.12512,29.23584,-35.88867,-9.70459
8358,0.0155,-0.29919,0.11804,31.98242,-32.10449,-13.42773
8366,0.09473,-0.28076,0.10669,35.09521,-29.90723,-18.24951
8375,0.18054,-0.25146,0.11426,37.65869,-28.62549,-23.31543
8383,0.28369,-0.21729,0.12366,40.34424,-28.07617,-27.83203
8392,0.39697,-0.16602,0.14966,43.51807,-28.07617,-31.18896
8400,0.54565,-0.10071,0.20557,46.81396,-28.13721,-33.26416
8409,0.72595,-0.03296,0.27539,51.45264,-28.50342,-36.01074
8418,0.92505,0.00049,0.34241,57.73926,-29.60205,-40.95459
8427,1.11377,0.03979,0.45361,63.11035,-31.31104,-49.62158
8435,1.31738,-0.01245,0.57458,68.60352,-32.53174,-61.03516
8443,1.53674,-0.1167,0.72437,73.6084,-31.31104,-71.28906
8452,1.77368,-0.17627,0.8999,77.51465,-24.35303,-75.8667
8461,2.04138,-0.19055,1.05469,81.66504,-11.2915,-73.48633
8470,2.29895,-0.13452,1.18787,84.10645,6.7749,-69.0918
8479,2.48694,-0.00464,1.30164,83.80127,29.78516,-65.61279
8488,2.64148,0.16553,1.36414,82.88574,52.85645,-60.48584
8497,2.75732,0.39026,1.36694,83.00781,71.5332,-54.32129
8505,2.79895,0.63391,1.30969,81.84814,84.83887,-49.43848
8513,2.75159,0.8418,1.23157,76.59912,92.59033,-47.79053
8522,2.58167,1.00977,1.13062,68.90869,94.84863,-49.98779
8530,2.27197,1.10522,0.98938,62.98828,91.6748,-54.6875
8538,1.89526,1.15442,0.84888,58.53271,83.37402,-61.21826
8546,1.56274,1.05884,0.67163,56.70166,70.92285,-71.77734
8555,1.20337,0.80591,0.47559,54.32129,55.66406,-87.82959
8563,0.84424,0.50891,0.32861,47.66846,37.65869,-99.36523
8571,0.53064,0.25732,0.27332,38.45215,19.16504,-98.20557
8579,0.2821,0.07043,0.24951,31.25,4.08936,-83.80127
8587,0.11707,-0.04309,0.23254,25.14648,-4.39453,-59.38721
8595,0.11707,-0.04309,0.23254,19.04297,-6.46973,-30.57861
8603,0.00818,-0.05994,0.22168,19.04297,-6.46973,-2.56348
8611,-0.02417,-0.02258,0.23755,11.65771,-4.02832,-2.56348
8619,-0.05542,0.05408,0.24121,5.79834,-1.40381,20.50781
8627,-0.05627,0.12402,0.22302,2.62451,0.91553,38.39111
8635,-0.06482,0.20764,0.19006,0.18311,2.56348,50.354
8643,-0.08691,0.25867,0.15369,-2.92969,3.84521,56.45752
8651,-0.12268,0.26685,0.12402,-5.12695,4.57764,58.83789
8659,-0.15674,0.26477,0.11279,-6.46973,3.90625,59.99756
8667,-0.19995,0.28479,0.09473,-6.71387,0.91553,61.2793
8675,-0.20996,0.30884,0.08557,-5.67627,-2.86865,62.13379
8683,-0.23804,0.31018,0.0271,-4.88281,-6.65283,61.70654
8691,-0.23804,0.29858,-0.00378,-6.71387,-6.95801,60.36377
8700,-0.23547,0.29272,-0.02319,-11.84082,-3.60107,58.28857
8708,-0.23547,0.29272,-0.02319,-17.94434,1.09863,55.48096
8716,-0.20886,0.28003,-0.0282,-17.94434,1.09863,53.03955
8724,-0.16809,0.28113,-0.0321,-22.88818,6.40869,53.03955
8732,-0.13489,0.26892,-0.06482,-25.6958,11.71875,49.49951
8740,-0.10132,0.23572,-0.10889,-28.86963,17.08984,45.34912
8748,-0.05615,0.21887,-0.14258,-33.44727,22.94922,41.74805
8756,-0.01318,0.22095,-0.17126,-39.12354,28.44238,39.12354
8764,0.04907,0.24451,-0.18518,-44.49463,32.40967,36.68213
8772,0.12769,0.24573,-0.1853,-50.04883,34.97314,33.38623
8780,0.20581,0.27002,-0.16016,-54.74854,34.97314,29.90723
8788,0.3075,0.25916,-0.14954,-57.80029,32.4707,28.38135
8796,0.44946,0.24121,-0.15027,-60.72998,28.19824,30.33447
8804,0.63696,0.24377,-0.08582,-66.40625,24.41406,34.30176
8812,0.63733,0.24377,-0.08582,-71.47217,19.22607,41.38184
8820,0.88306,0.25769,-0.00171,-71.47217,19.22607,41.38184
8828,1.17102,0.28784,0.078,-73.05908,11.41357,50.41504
8836,1.50208,0.31104,0.14197,-71.16699,1.83105,58.41064
8844,1.8335,0.33325,0.22314,-69.58008,-8.30078,62.92725
8852,2.13159,0.35254,0.31567,-67.68799,-19.65332,65.12451
8860,2.39001,0.38245,0.40491,-64.51416,-32.10449,66.34521
8868,2.604,0.41577,0.50195,-61.03516,-44.55566,64.33105
8876,2.77576,0.44897,0.61938,-56.88477,-56.33545,60.4248
8885,2.90076,0.50208,0.74219,-51.08643,-66.65039,55.84717
8893,2.92676,0.55615,0.84851,-44.49463,-71.28906,48.76709
8902,2.85559,0.56763,0.9519,-41.1377,-66.04004,37.41455
8910,2.69788,0.53589,1.03235,-40.03906,-52.06299,21.72852
8919,2.49231,0.44556,1.06091,-37.29248,-33.44727,5.12695
8928,2.22571,0.30688,1.00256,-31.49414,-13.73291,-8.36182
8937,1.95349,0.16589,0.8949,-24.59717,2.92969,-15.99121
8946,1.69702,0.06702,0.77417,-18.12744,16.23535,-16.41846
8954,1.46436,0.00427,0.62878,-10.92529,24.84131,-11.53564
8962,1.2467,-0.04395,0.47583,-5.61523,28.50342,-5.18799
8971,1.04419,-0.03845,0.35767,-3.78418,28.50342,1.15967
8980,0.8739,-0.00989,0.27026,-2.92969,24.29199,6.95801
8992,0.72839,0.01978,0.20337,-1.15967,16.60156,9.64355
9001,0.62,0.04382,0.16455,1.0376,5.67627,9.82666
9010,0.51721,0.04028,0.11169,4.3335,-7.8125,7.56836
9019,0.43262,0.0199,0.08276,6.95801,-21.1792,3.05176
9028,0.3479,0.01062,0.10681,7.44629,-32.40967,-2.19727
9036,0.27429,-0.04053,0.08813,10.62012,-42.41943,-5.98145
9044,0.18127,-0.07043,0.07788,13.12256,-47.60742,-10.25391
9053,0.12744,-0.09424,0.09338,13.97705,-48.15674,-12.3291
9061,0.08801,-0.12268,0.08215,15.99121,-46.44775,-13.61084
9070,0.04822,-0.14941,0.0675,18.06641,-43.15186,-15.50293
9078,0.02307,-0.15576,0.06653,19.71436,-38.94043,-17.51709
9087,0.01929,-0.15967,0.0564,22.64404,-34.79004,-19.22607
9095,0.02979,-0.14722,0.05737,24.96338,-30.82275,-22.2168
9103,0.06482,-0.13623,0.06482,27.58789,-26.7334,-26.30615
9112,0.10132,-0.1228,0.07825,30.70068,-22.58301,-31.98242
9120,0.15186,-0.13708,0.08557,34.05762,-18.43262,-39.0625
9129,0.19678,-0.16199,0.099,37.47559,-14.03809,-46.44775
9137,0.26086,-0.17822,0.1239,41.1377,-10.0708,-51.3916
9146,0.34106,-0.18652,0.14575,45.22705,-7.38525,-54.44336
9155,0.45447,-0.16492,0.203,49.19434,-5.37109,-56.27441
9164,0.63306,-0.12073,0.29749,53.95508,-4.02832,-56.51855
9173,0.86157,-0.05884,0.38562,61.88965,-3.84521,-57.55615
9182,1.10547,0.01599,0.47644,70.25146,-3.2959,-60.36377
9191,1.37231,0.04785,0.55798,77.33154,0.79346,-66.22314
9199,1.60046,0.04761,0.67187,80.2002,13.3667,-75.19531
9207,1.81885,-0.02002,0.7771,81.35986,32.34863,-83.12988
9215,2.00732,-0.10632,0.84644,81.604,55.29785,-88.62305
9224,2.17358,-0.17651,0.90295,78.97949,80.13916,-89.90479
9233,2.3053,-0.16492,0.91931,74.70703,102.66113,-85.75439
9242,2.4248,-0.0498,0.86084,70.00732,120.97168,-73.6084
9251,2.51892,0.17078,0.80518,61.34033,133.72803,-57.73926
9260,2.58508,0.44275,0.79382,49.86572,137.08496,-45.10498
9269,2.54456,0.67578,0.74683,41.87012,127.0752,-40.46631
9277,2.35229,0.79932,0.66528,37.59766,107.54395,-45.89844
9286,2.04443,0.77356,0.56311,33.69141,82.39746,-55.84717
9294,1.67212,0.65491,0.47705,27.52686,55.35889,-66.34521
9302,1.28882,0.49854,0.42395,20.44678,29.11377,-73.73047
9311,0.92212,0.30688,0.39465,13.61084,5.18799,-77.0874
9320,0.58118,0.09009,0.38098,7.62939,-15.50293,-74.76807
9329,0.28357,-0.078,0.39941,1.89209,-30.70068,-64.02588
9337,0.05933,-0.20178,0.41895,-2.44141,-36.43799,-44.73877
9346,-0.08716,-0.26062,0.40784,-5.37109,-33.26416,-19.77539
9357,-0.15637,-0.23853,0.36536,-7.50732,-23.49854,7.87354
9366,-0.15564,-0.14673,0.32007,-9.33838,-11.2915,35.09521
9375,-0.13599,-0.01355,0.26758,-9.82666,-2.68555,57.12891
9384,-0.1228,0.09473,0.20349,-7.69043,1.28174,71.28906
9392,-0.13037,0.1543,0.11926,-4.02832,1.89209,78.55225
9400,-0.15149,0.17993,0.02686,-1.83105,0.73242,81.23779
9408,-0.18396,0.20422,-0.04187,-1.40381,-0.06104,82.6416
9416,-0.19641,0.2373,-0.09705,-2.44141,0.48828,84.47266
9425,-0.20349,0.26868,-0.16431,-4.08936,3.41797,85.9375
9433,-0.20068,0.29114,-0.2312,-7.56836,8.91113,86.12061
9442,-0.19763,0.31262,-0.2865,-12.57324,15.50293,84.96094
9450,-0.18079,0.32483,-0.3219,-18.61572,20.69092,82.39746
9459,-0.16443,0.33435,-0.34424,-23.92578,22.82715,78.55225
9468,-0.15491,0.34753,-0.33643,-28.86963,20.69092,73.54736
9477,-0.13171,0.35266,-0.29211,-33.20313,14.95361,68.72559
9489,-0.08533,0.33704,-0.24536,-35.27832,6.71387,63.90381
9500,-0.00171,0.30249,-0.16968,-38.0249,-5.24902,52.4292
9511,0.04614,0.2998,-0.12854,-39.97803,-5.12695,46.875
9520,0.12378,0.29236,-0.09839,-42.5415,-0.48828,41.44287
9528,0.22595,0.26953,-0.09412,-44.7998,8.72803,35.15625
9536,0.35803,0.2218,-0.08691,-48.40088,20.20264,28.9917
9544,0.51782,0.17346,-0.04736,-53.34473,29.23584,25.75684
9553,0.7489,0.10645,0.02454,-58.59375,33.56934,28.86963
9561,1.08032,0.06775,0.15332,-61.64551,34.79004,43.15186
9570,1.48804,0.11804,0.29407,-61.03516,32.71484,66.34521
9578,1.94519,0.29675,0.43225,-57.61719,29.96826,90.14893
9586,2.3938,0.52881,0.5542,-53.10059,27.40479,106.01807
9594,2.3938,0.52881,0.5542,-48.21777,21.97266,107.42188
9603,2.77405,0.69897,0.66541,-43.27393,9.94873,93.56689
9615,3.04834,0.75781,0.71326,-37.71973,-8.11768,71.77734
9623,2.99048,0.68213,0.73071,-30.39551,-27.16064,50.47607
9632,2.80872,0.5929,0.73657,-22.3999,-41.80908,31.31104
9641,2.5769,0.43274,0.72546,-15.31982,-49.37744,15.86914
9649,2.32458,0.25415,0.72424,-10.43701,-48.64502,6.10352
9657,2.09399,0.13025,0.7406,-6.95801,-40.1001,3.54004
9665,1.90405,0.05823,0.72473,-1.46484,-26.12305,8.30078
9673,1.74548,0.047,0.65295,5.92041,-8.8501,17.15088
9681,1.74548,0.047,0.65295,13.3667,8.78906,26.42822
9689,1.58081,0.06458,0.52222,13.3667,8.78906,35.40039
9697,1.40015,0.10376,0.37329,19.22607,23.74268,35.40039
9705,1.24036,0.14929,0.21802,23.13232,31.98242,43.94531
9713,1.09106,0.21191,0.08337,25.87891,32.4707,49.43848
9721,0.99353,0.24744,-0.0188,26.42822,25.87891,49.80469
9729,0.88477,0.22632,-0.09668,26.42822,13.61084,44.00635
9737,0.77063,0.12622,-0.15149,25.75684,-2.50244,34.30176
9745,0.65405,0.01294,-0.15686,24.16992,-20.20264,26.00098
9753,0.56689,-0.08057,-0.13037,21.1792,-38.20801,21.05713
9761,0.51001,-0.13708,-0.08936,18.9209,-53.89404,18.55469
9770,0.47937,-0.14832,-0.00439,16.41846,-64.7583,16.29639
9779,0.47937,-0.16174,0.07239,15.80811,-70.43457,14.5874
9787,0.48804,-0.16638,0.13586,16.6626,-70.3125,11.2915
9795,0.49548,-0.16577,0.19678,17.63916,-63.96484,5.37109
9803,0.49548,-0.16577,0.22766,19.77539,-54.19922,-2.31934
9811,0.50049,-0.18384,0.22766,19.77539,-43.5791,-9.8877
9819,0.5,-0.20886,0.23694,23.68164,-43.5791,-9.8877
9827,0.50513,-0.21423,0.24316,27.89307,-34.11865,-17.76123
9835,0.505,-0.21619,0.23511,33.69141,-26.48926,-25.87891
9843,0.50171,-0.20374,0.23364,40.03906,-20.38574,-33.99658
9852,0.50671,-0.17773,0.23425,45.95947,-15.38086,-41.56494
9861,0.51758,-0.16003,0.23792,52.06299,-10.49805,-48.70605
9870,0.54065,-0.1123,0.26099,58.34961,-5.61523,-54.6875
9879,0.6095,-0.02808,0.30444,65.30762,0,-59.81445
9888,0.68567,0.04333,0.32654,74.03564,6.22559,-66.28418
9896,0.78015,0.0625,0.32178,81.78711,12.93945,-73.97461
9905,0.87244,0.10034,0.36401,85.08301,19.71436,-83.06885
9913,0.99805,0.11609,0.42688,86.91406,25.6958,-90.57617
9921,1.13757,0.09253,0.49939,90.51514,29.90723,-97.10693
9930,1.30847,0.02087,0.57153,94.29932,33.99658,-103.8208
9938,1.50281,-0.06897,0.66223,96.74072,40.46631,-108.94775
9947,1.70874,-0.14478,0.74731,98.0835,49.43848,-109.49707
9955,1.85925,-0.11865,0.80969,97.59521,61.82861,-105.46875
9963,1.98914,-0.0304,0.83704,95.76416,78.24707,-96.31348
9972,2.07532,0.10742,0.79053,92.7124,94.84863,-85.02197
9981,2.10803,0.27893,0.70715,86.79199,110.4126,-73.48633
9990,2.1427,0.44287,0.62573,77.33154,119.01855,-59.57031
9998,2.12781,0.59241,0.54761,66.34521,117.1875,-47.60742
10006,2.01599,0.69861,0.48108,55.23682,105.46875,-39.48975
10015,1.81531,0.75745,0.41345,45.22705,85.9375,-33.56934
10024,1.53687,0.74219,0.32812,37.35352,62.68311,-30.09033
10032,1.24731,0.63452,0.24561,29.90723,39.00146,-28.44238
10040,0.9303,0.47168,0.16956,22.09473,16.29639,-28.19824
10048,0.64709,0.31921,0.14282,13.48877,-4.15039,-24.41406
10057,0.40942,0.19775,0.1427,6.46973,-20.56885,-16.23535
10066,0.21069,0.09119,0.13757,2.2583,-32.40967,-3.66211
10075,0.05627,0.03027,0.13708,-0.24414,-37.71973,13.3667
10083,-0.04822,0.00269,0.10681,-0.79346,-36.07178,36.56006
10092,-0.12646,0.01111,0.04858,-0.36621,-27.89307,63.17139
10101,-0.17688,0.06482,-0.02112,-0.61035,-15.38086,90.14893
10110,-0.19336,0.15015,-0.07581,-0.91553,-2.92969,113.76953
10119,-0.20068,0.24487,-0.13867,-0.42725,6.53076,130.31006
10128,-0.20593,0.33203,-0.1781,-1.2207,10.43701,137.63428
10137,-0.1969,0.38367,-0.1748,-4.69971,7.62939,136.77979
10147,-0.18762,0.41223,-0.12524,-10.0708,-1.64795,129.69971
10157,-0.20422,0.4563,-0.01135,-14.77051,-14.95361,119.2627
10166,-0.23865,0.48108,0.09583,-15.19775,-29.60205,107.54395
10175,-0.29077,0.48413,0.14917,-12.93945,-41.50391,97.71729
10183,-0.3186,0.49976,0.17896,-13.18359,-44.25049,90.88135
10191,-0.33105,0.50024,0.16711,-16.72363,-35.46143,85.63232
10200,-0.33215,0.49121,0.12524,-22.58301,-19.34814,80.2002
10209,-0.29395,0.44702,0.05859,-29.84619,-3.84521,73.85254
10218,-0.2561,0.38843,-0.03442,-36.25488,4.63867,65.73486
10226,-0.2207,0.33606,-0.12549,-42.48047,4.57764,56.03027
10235,-0.16504,0.28345,-0.18567,-50.23193,-2.62451,46.50879
10244,-0.11938,0.245,-0.2251,-58.95996,-14.64844,37.78076
10253,-0.02466,0.23486,-0.20935,-68.35938,-29.66309,32.04346
10262,0.11316,0.24805,-0.16064,-77.69775,-44.55566,29.41895
10270,0.29504,0.26123,-0.07983,-85.69336,-56.9458,29.35791
10279,0.54639,0.3114,0.04785,-93.26172,-64.51416,32.22656
10288,0.84204,0.34558,0.1687,-98.32764,-66.65039,36.43799
10297,1.18262,0.33203,0.27173,-101.07422,-64.14795,40.77148
10305,1.58899,0.30518,0.40515,-103.33252,-59.50928,47.9126
10313,2.01746,0.32874,0.56396,-101.98975,-56.27441,57.25098
10322,2.45996,0.3811,0.72192,-93.62793,-56.7627,65.30762
10331,2.86768,0.45117,0.87378,-79.40674,-62.07275,69.76318
10340,3.20935,0.56311,1.03174,-62.25586,-71.83838,70.55664
10349,3.45215,0.73914,1.18958,-41.56494,-82.51953,70.06836
10357,3.51404,0.90308,1.29578,-19.22607,-86.91406,63.04932
10365,3.38953,0.98682,1.32739,0.30518,-78.85742,44.31152
10373,3.12891,0.90076,1.28186,13.42773,-56.39648,17.51709
10381,2.75061,0.67261,1.18591,19.16504,-25.45166,-10.98633
10389,2.33459,0.41968,1.07068,23.49854,5.12695,-32.2876
10397,1.95325,0.20105,0.91687,31.31104,29.78516,-39.0625
10405,1.65564,0.08997,0.73987,41.74805,48.0957,-30.0293
10413,1.46375,0.09021,0.57764,50.354,61.82861,-12.3291
10421,1.3407,0.14282,0.43298,56.57959,70.19043,5.92041
10429,1.22791,0.21606,0.29041,60.54688,72.02148,19.104
10437,1.22791,0.21606,0.29041,60.79102,68.0542,25.87891
10445,1.13782,0.2782,0.17688,60.79102,68.0542,24.78027
10453,1.05566,0.30249,0.07458,58.34961,59.69238,24.78027
10461,0.96106,0.31641,0.01904,53.52783,47.24121,16.17432
10469,0.86609,0.27893,-0.0033,48.21777,31.12793,4.39453
10477,0.75488,0.19714,-0.01624,44.67773,13.61084,-7.32422
10485,0.64087,0.11926,0.02014,39.97803,-2.13623,-19.53125
10494,0.51123,0.04321,0.07983,36.07178,-14.70947,-30.2124
10503,0.40283,-0.03247,0.13452,35.15625,-24.78027,-37.10938
10512,0.3064,-0.08521,0.1825,36.19385,-31.06689,-41.44287
10520,0.23254,-0.13733,0.21106,38.08594,-32.95898,-44.25049
10529,0.18347,-0.15735,0.24207,40.22217,-30.2124,-46.08154
10538,0.15271,-0.16138,0.25378,43.70117,-24.78027,-47.60742
10546,0.13623,-0.15991,0.2406,48.0957,-18.06641,-49.49951
10555,0.14661,-0.13074,0.2323,52.12402,-11.16943,-51.81885
10564,0.19666,-0.0946,0.20679,56.88477,-4.76074,-54.74854
10573,0.23022,-0.03857,0.16455,61.64551,1.52588,-60.48584
10582,0.28052,0.00098,0.12012,64.94141,7.75146,-67.56592
10590,0.34937,0.03735,0.08899,66.46729,13.67187,-74.40186
10598,0.42126,0.08142,0.06702,66.95557,18.9209,-82.09229
10606,0.49683,0.11609,0.06348,66.58936,22.64404,-88.86719
10614,0.58167,0.14685,0.07507,65.73486,24.35303,-94.48242
10622,0.68408,0.19946,0.12488,64.39209,23.98682,-99.36523
10630,0.77441,0.26636,0.2019,65.24658,22.88818,-104.49219
10638,0.85583,0.29724,0.25037,69.33594,23.49854,-111.14502
10646,0.91833,0.28906,0.27197,74.15771,28.9917,-119.01855
10654,0.93225,0.28906,0.27197,75.19531,40.89355,-127.92969
10662,1.01819,0.22717,0.27673,75.19531,40.89355,-127.92969
10670,1.10449,0.12073,0.27698,71.65527,58.04443,-136.77979
10678,1.16968,0.02844,0.25513,64.94141,76.0498,-142.21191
10686,1.24536,-0.09827,0.20239,56.64063,93.26172,-143.24951
10694,1.28784,-0.19397,0.11755,47.18018,108.82568,-140.56396
10702,1.34778,-0.26501,0.00232,35.40039,121.88721,-130.12695
10710,1.46838,-0.26794,-0.06299,19.34814,129.69971,-111.6333
10718,1.62207,-0.14075,-0.04004,0.30518,129.21143,-85.9375
10726,1.78271,0.09863,0.04211,-15.80811,117.79785,-56.57959
10734,1.85889,0.38477,0.12085,-27.16064,97.53418,-33.02002
10742,1.82666,0.63452,0.16687,-37.17041,73.30322,-21.24023
10750,1.82666,0.63452,0.20935,-50.29297,47.79053,-21.60645
10758,1.69141,0.76123,0.20935,-50.29297,21.30127,-29.05273
10766,1.4906,0.77026,0.28662,-64.39209,21.30127,-29.05273
10774,1.23462,0.65356,0.34363,-73.73047,-6.10352,-36.13281
10782,0.98169,0.49353,0.38623,-76.41602,-32.04346,-35.88867
10790,0.73206,0.34155,0.42725,-77.27051,-53.16162,-27.46582
10798,0.50928,0.21936,0.46704,-76.47705,-64.94141,-11.90186
10806,0.35254,0.13171,0.49585,-75.92773,-65.73486,9.64355
10814,0.24524,0.10718,0.52136,-75.74463,-54.6875,34.91211
10822,0.20203,0.12292,0.53455,-74.76807,-36.37695,60.30273
10830,0.19153,0.16125,0.49585,-71.83838,-15.86914,82.4585
10838,0.19666,0.19409,0.44788,-67.93213,1.28174,99.24316
10846,0.19617,0.21191,0.39819,-62.74414,12.26807,110.83984
10854,0.19617,0.21191,0.39819,-56.39648,14.89258,118.2251
10863,0.17273,0.21326,0.31177,-50.59814,10.62012,122.31445
10871,0.14294,0.24731,0.31177,-50.59814,2.99072,123.9624
10879,0.11682,0.29309,0.31995,-46.75293,2.99072,123.9624
10888,0.09961,0.32288,0.35388,-42.60254,-5.31006,122.68066
10896,0.07178,0.32825,0.37842,-38.26904,-13.73291,118.77441
10904,0.04346,0.31567,0.37061,-33.20313,-18.98193,114.19678
10912,0.0376,0.30444,0.35645,-29.78516,-18.00537,110.83984
10921,0.05798,0.31055,0.33118,-28.13721,-11.23047,107.54395
10930,0.08545,0.30127,0.27649,-26.36719,-2.01416,102.11182
10938,0.10168,0.29602,0.22339,-24.6582,5.85937,94.54346
10946,0.11072,0.29333,0.17126,-23.31543,8.30078,86.85303
10954,0.12158,0.27185,0.10608,-21.66748,7.01904,77.75879
10962,0.10583,0.25842,0.03577,-20.99609,5.24902,67.68799
10970,0.09082,0.24536,-0.00891,-23.86475,5.61523,58.65479
10979,0.12659,0.23291,-0.02258,-27.28271,7.32422,53.40576
10987,0.20361,0.23145,-0.04602,-29.66309,9.52148,51.63574
10995,0.32312,0.2395,-0.0636,-32.59277,12.93945,50.96436
11004,0.50427,0.27185,-0.03992,-37.17041,17.39502,51.57471
11012,0.70776,0.32202,0.0127,-41.25977,20.38574,52.4292
11021,0.93689,0.32959,0.04443,-42.17529,19.104,52.49023
11031,1.17212,0.29565,0.03577,-40.2832,17.82227,53.89404
11039,1.4375,0.25952,0.03687,-40.03906,18.79883,59.69238
11047,1.73987,0.22229,0.04333,-40.77148,20.62988,69.51904
11055,2.03345,0.25647,0.0553,-40.16113,20.44678,79.89502
11063,2.3147,0.38794,0.09521,-39.24561,14.5874,88.92822
11071,2.32788,0.38794,0.09521,-36.62109,1.52588,92.65137
11079,2.59106,0.54736,0.13403,-36.62109,1.52588,92.65137
11087,2.77881,0.69226,0.19983,-32.83691,-15.68604,88.1958
11096,2.85425,0.71533,0.27588,-28.38135,-35.70557,74.09668
11104,2.78821,0.61401,0.35889,-22.94922,-56.51855,52.49023
11112,2.59814,0.41382,0.44983,-17.57813,-73.73047,29.29688
11120,2.36633,0.15051,0.56934,-14.4043,-81.72607,11.23047
11129,2.14307,-0.08093,0.70093,-11.35254,-76.53809,2.38037
11138,1.94861,-0.21155,0.79407,-3.84521,-59.14307,3.35693
11146,1.83643,-0.24731,0.78528,8.23975,-35.82764,12.26807
11154,1.77356,-0.2113,0.68555,21.48438,-10.80322,21.66748
11162,1.77283,-0.12256,0.5874,30.45654,12.02393,27.03857
11170,1.8197,-0.03687,0.48352,36.37695,26.9165,26.30615
11178,1.88647,0.07312,0.43665,40.40527,30.57861,19.104
11188,1.93933,0.15222,0.40527,44.6167,24.59717,5.67627
11196,1.92542,0.17896,0.38147,48.70605,11.77979,-13.06152
11204,1.83691,0.16309,0.38403,51.3916,-3.41797,-34.17969
11212,1.68604,0.11975,0.39001,53.6499,-17.76123,-53.10059
11220,1.50378,0.06726,0.39136,56.57959,-29.90723,-67.07764
11228,1.50378,0.03601,0.38562,61.09619,-38.0249,-75.31738
11237,1.12585,0.03174,0.3512,66.58936,-41.44287,-78.49121
11245,1.12585,0.03174,0.3512,71.28906,-39.97803,-78.30811
11254,0.95032,0.00293,0.23584,74.15771,-35.64453,-75.01221
11262,0.79089,-0.00842,0.23584,74.15771,-30.27344,-68.66455
11273,0.62305,0.17285,0.21277,80.2002,-25.20752,-62.92725
11283,0.61584,0.30347,0.19531,87.76855,-19.9585,-63.17139
11292,0.55017,0.38599,0.12146,95.45898,-14.5874,-71.71631
11301,0.48987,0.44446,0.09277,97.35107,-7.69043,-84.22852
11310,0.44861,0.51086,0.11035,95.33691,-0.73242,-96.67969
11318,0.39307,0.55933,0.13354,95.33691,6.22559,-110.96191
11326,0.32568,0.56628,0.13416,97.65625,11.65771,-124.32861
11334,0.24622,0.53284,0.11487,101.25732,14.83154,-133.17871
11343,0.17932,0.49719,0.11047,103.8208,16.11328,-136.59668
11352,0.12585,0.46399,0.12402,105.34668,16.05225,-134.46045
11361,0.10278,0.44507,0.14685,107.84912,15.68604,-129.69971
11371,0.11511,0.48315,0.21423,109.86328,16.11328,-125
11381,0.13477,0.52747,0.28662,113.34229,18.43262,-122.25342
11390,0.17004,0.54358,0.3158,118.95752,23.86475,-122.49756
11398,0.23242,0.5293,0.35559,121.15479,34.42383,-125.42725
11406,0.31689,0.4502,0.38477,119.99512,50.47607,-129.27246
11414,0.36609,0.34668,0.39197,117.00439,69.03076,-133.42285
11423,0.41309,0.21802,0.36816,111.57227,88.0127,-133.05664
11431,0.45215,0.01355,0.21667,105.40771,107.17773,-125.67139
11439,0.48572,-0.26807,-0.01416,93.81104,126.0376,-113.34229
11447,0.50415,-0.49585,-0.19067,69.82422,143.49365,-93.07861
11457,0.56714,-0.59338,-0.28101,38.0249,155.09033,-58.41064
11466,0.69592,-0.49487,-0.25232,5.85937,155.09033,-12.39014
11475,0.85901,-0.23096,-0.12061,-18.67676,140.74707,34.42383
11484,1.05347,0.02612,-0.01001,-27.28271,111.02295,73.30322
11492,1.18408,0.22607,0.04687,-22.58301,67.87109,93.38379
11500,1.22302,0.33594,0.06067,-16.05225,18.49365,96.49658
11508,1.17957,0.36487,0.08069,-16.35742,-26.79443,90.08789
11517,1.07996,0.31555,0.13879,-24.71924,-61.15723,79.65088
11526,0.93115,0.21362,0.18506,-35.52246,-81.78711,70.00732
11534,0.75061,0.08899,0.21753,-47.66846,-90.69824,65.24658
11543,0.56714,-0.0072,0.2616,-61.52344,-91.12549,69.45801
11552,0.41833,-0.04932,0.32117,-73.6084,-85.26611,82.70264
11561,0.31384,-0.04517,0.34717,-79.46777,-77.02637,102.17285
11569,0.23535,0.01563,0.33191,-79.58984,-67.87109,123.04688
11577,0.19507,0.11926,0.30261,-79.65088,-58.34961,141.41846
11585,0.17908,0.23499,0.28491,-80.44434,-49.56055,155.45654
11593,0.17908,0.3728,0.3075,-82.33643,-43.15186,163.51318
11601,0.18579,0.3728,0.3075,-81.97021,-39.30664,165.77148
11609,0.20862,0.51477,0.33606,-81.97021,-39.30664,165.77148
11617,0.26318,0.62854,0.35974,-78.36914,-38.20801,161.31592
11625,0.30371,0.6864,0.34485,-72.02148,-39.55078,149.90234
11633,0.34473,0.68359,0.30627,-66.77246,-43.396,133.11768
11641,0.39258,0.68091,0.32422,-65.979,-47.9126,116.69922
11649,0.43604,0.64832,0.375,-67.81006,-51.81885,102.35596
11657,0.46899,0.59619,0.41101,-66.71143,-53.89404,89.66064
11665,0.47095,0.55017,0.41809,-61.82861,-51.94092,78.18604
11673,0.49915,0.47998,0.3855,-56.45752,-46.44775,68.42041
11682,0.53223,0.43994,0.34521,-54.93164,-36.19385,58.04443
11690,0.59021,0.42651,0.33459,-56.88477,-21.24023,45.22705
11698,0.62402,0.42249,0.34033,-58.77686,-5.24902,29.60205
11706,0.65527,0.36401,0.30334,-57.80029,8.60596,13.12256
11714,0.64185,0.36401,0.30334,-55.23682,20.44678,-0.30518
11722,0.6438,0.27722,0.24878,-55.23682,20.44678,-0.30518
11730,0.66882,0.20667,0.20557,-54.01611,31.79932,-8.30078
11738,0.72449,0.14038,0.15173,-53.58887,43.82324,-11.04736
11746,0.81653,0.11145,0.11536,-53.77197,57.25098,-9.58252
11754,0.9425,0.09363,0.04492,-53.22266,72.26563,-5.12695
11762,1.14441,0.01953,-0.06335,-52.73438,88.92822,3.23486
11770,1.37341,-0.0791,-0.20508,-55.11475,106.20117,15.44189
11778,1.59314,-0.12549,-0.31873,-61.2793,119.87305,30.39551
11787,1.87109,-0.09521,-0.35522,-67.50488,125.91553,50.65918
11795,2.16199,0.05713,-0.33948,-68.72559,117.00439,72.5708
11803,2.45239,0.27832,-0.26343,-64.88037,88.31787,88.62305
11811,2.69739,0.54224,-0.0946,-59.08203,41.07666,94.84863
11819,2.85364,0.71033,0.1167,-50.29297,-19.9585,87.09717
11827,2.84497,0.71033,0.1167,-40.16113,-84.04541,64.94141
11835,2.80933,0.72498,0.32617,-40.16113,-84.04541,64.94141
11843,2.61694,0.6521,0.56958,-33.56934,-135.98633,36.74316
11851,2.32617,0.46143,0.83337,-31.49414,-164.55078,12.20703
11860,2.00732,0.22949,1.07581,-32.22656,-164.24561,-3.54004
11869,1.72827,0.04968,1.27441,-30.63965,-138.42773,-7.26318
11878,1.51917,-0.04956,1.33484,-18.73779,-99.06006,3.17383
11887,1.37671,-0.02429,1.22388,0.85449,-55.48096,24.90234
11896,1.34131,0.06653,1.01379,20.26367,-14.16016,64.27002
11904,1.33313,0.21277,0.77295,34.05762,18.37158,64.27002
11912,1.34338,0.30542,0.54419,42.11426,36.86523,66.28418
11920,1.3103,0.33667,0.31567,47.97363,38.20801,55.23682
11929,1.23999,0.28137,0.13403,51.14746,24.4751,36.74316
11937,1.13611,0.17786,0.01599,51.63574,-0.67139,16.96777
11945,1.00208,0.09827,-0.03528,52.79541,-30.70068,0.06104
11954,0.89551,0.01135,-0.06189,56.15234,-60.54688,-11.16943
11963,0.79553,-0.05505,-0.07507,60.2417,-84.59473,-20.08057
11972,0.71106,-0.09509,-0.07288,63.41553,-100.70801,-26.61133
11981,0.63953,-0.12012,-0.05225,65.73486,-107.66602,-32.77588
11990,0.56287,-0.13354,-0.01514,65.7959,-103.94287,-39.24561
11999,0.50378,-0.151,0.01855,65.73486,-90.271,-45.16602
12008,0.43616,-0.1687,0.03052,66.8335,-68.29834,-50.23193
12017,0.37537,-0.17407,0.01172,70.00732,-42.48047,-52.85645
12026,0.34509,-0.14172,-0.02539,74.34082,-16.8457,-52.06299
12035,0.33069,-0.0531,-0.07715,78.18604,4.69971,-54.01611
12044,0.35413,0.06848,-0.11157,80.44434,35.5835,-64.14795
12053,0.37634,0.18127,-0.14453,85.32715,42.29736,-80.99365
12062,0.39526,0.23401,-0.19446,84.65576,43.88428,-100.70801
12071,0.40979,0.31177,-0.17517,81.54297,40.77148,-119.99512
12079,0.43481,0.31177,-0.17517,79.83398,34.97314,-136.2915
12088,0.47046,0.31653,-0.06543,79.46777,28.13721,-148.4375
12097,0.62146,0.2356,0.00696,80.26123,22.58301,-154.72412
12106,0.73206,0.16699,0.1062,81.05469,18.31055,-156.49414
12115,0.87939,0.10242,0.23181,82.6416,17.27295,-156.00586
12124,1.0332,0.00073,0.34302,84.47266,20.99609,-155.27344
12132,1.19275,-0.10522,0.47241,84.59473,31.86035,-153.01514
12141,1.38538,-0.23328,0.57959,81.35986,51.26953,-148.62061
12150,1.53125,-0.36047,0.61694,75.43945,76.66016,-144.59229
12159,1.65344,-0.52454,0.57397,64.33105,106.50635,-137.75635
12167,1.81812,-0.5929,0.54553,45.22705,135.62012,-119.38477
12175,1.81812,-0.5929,0.60852,20.44678,155.33447,-80.93262
12184,2.36365,0.01648,0.71423,0.24414,157.65381,-32.95898
12193,2.56494,0.51404,0.78442,-7.99561,141.90674,4.63867
12201,2.56494,0.51404,0.78442,-11.59668,111.87744,21.3623
12209,2.57678,0.87073,0.80676,-11.59668,75.13428,21.54541
12218,2.38281,1.08923,0.85999,-17.82227,39.24561,15.25879
12227,2.03967,1.13074,0.84949,-18.18848,11.77979,6.28662
12236,1.11853,0.84778,0.63708,-20.93506,-4.15039,-0.85449
12244,1.12012,0.84778,0.63708,-26.67236,-13.79395,-1.89209
12253,0.69495,0.59924,0.53967,-32.83691,-23.4375,4.02832
12261,0.30725,0.36475,0.48303,-32.83691,-23.4375,18.49365
12269,-0.02319,0.15125,0.43103,-35.27832,-33.99658,18.49365
12278,-0.26453,-0.01709,0.38062,-33.93555,-43.15186,42.17529
12287,-0.44604,-0.10657,0.32117,-31.06689,-49.37744,112.06055
12296,-0.54199,-0.09937,0.26062,-28.80859,-44.92188,149.35303
12305,-0.53992,0.00134,0.22388,-30.94482,-35.5835,177.97852
12314,-0.47949,0.14868,0.16028,-35.33936,-23.62061,192.44385
12323,-0.32617,0.42529,0.14172,-38.14697,-12.75635,193.90869
12331,-0.32617,0.42529,0.14172,-36.62109,-7.69043,184.99756
12339,-0.25134,0.44214,0.09119,-36.62109,-7.69043,169.37256
12347,-0.22266,0.42236,0.04065,-33.56934,-8.17871,169.06738
12355,-0.21326,0.40601,0.00122,-30.57861,-12.51221,151.7334
12363,-0.21484,0.36316,-0.02966,-29.11377,-17.39502,135.68115
12371,-0.24438,0.32996,-0.03137,-29.84619,-20.38574,122.31445
12379,-0.2334,0.29578,-0.03406,-31.25,-22.58301,113.76953
12387,-0.17578,0.26514,-0.04871,-33.63037,-22.94922,109.25293
12395,-0.12854,0.29321,-0.04724,-38.81836,-17.63916,102.6001
12404,-0.07227,0.2887,-0.05127,-44.6167,-9.0332,93.68896
12412,-0.04041,0.31445,-0.04944,-51.14746,0.36621,83.00781
12420,0.01086,0.34106,-0.03149,-56.88477,9.39941,72.63184
12428,0.08496,0.33936,-0.02698,-59.26514,17.15088,62.86621
12436,0.14392,0.3512,-0.03674,-59.08203,22.82715,52.49023
12444,0.14392,0.3512,-0.03674,-58.59375,27.52686,43.94531
12452,0.26282,0.33997,-0.05188,-58.59375,27.52686,43.94531
12460,0.36951,0.35779,-0.07581,-59.57031,30.88379,35.94971
12468,0.49915,0.33582,-0.08142,-63.96484,31.43311,31.67725
12476,0.69666,0.26685,-0.05029,-69.70215,26.97754,35.5835
12484,0.96289,0.24231,0.04749,-73.42529,16.54053,46.02051
12492,1.28149,0.22266,0.1554,-71.77734,1.40381,58.71582
12500,1.64893,0.24255,0.27893,-64.88037,-14.46533,71.47217
12508,2.08447,0.34021,0.44543,-57.73926,-30.94482,85.08301
12516,2.55347,0.5553,0.66821,-50.354,-44.25049,96.92383
12524,2.97351,0.85254,0.89441,-39.97803,-55.41992,103.02734
12532,3.29407,1.10364,1.04846,-25.93994,-63.41553,99.18213
12540,3.29407,1.22864,1.10999,-12.51221,-67.50488,83.31299
12548,3.40857,1.22974,1.10999,-12.51221,-67.07764,56.70166
12556,3.34045,1.20959,1.14026,-3.17383,-67.07764,56.70166
12564,3.08154,1.04614,1.13525,2.50244,-63.23242,23.80371
12572,2.70642,0.78137,1.11694,6.95801,-58.22754,-7.38525
12580,2.29883,0.49646,1.09131,11.90186,-53.77197,-30.39551
12588,1.92944,0.28613,1.0625,19.71436,-47.9126,-40.95459
12596,1.64453,0.19226,1.01648,30.57861,-36.74316,-39.30664
12604,1.45239,0.17749,0.92322,43.396,-19.53125,-29.78516
12612,1.3385,0.23816,0.79553,54.38232,0.06104,-18.12744
12620,1.25195,0.29187,0.62634,63.65967,17.02881,-9.0332
12628,1.17798,0.32849,0.45374,71.22803,28.56445,-4.45557
12636,1.10413,0.37915,0.31934,75.13428,33.87451,-4.94385
12644,1.10413,0.37915,0.31934,77.81982,30.09033,-9.09424
12652,1.05127,0.33398,0.16052,77.81982,30.09033,-17.8833
12660,0.974,0.27356,0.04028,78.73535,21.11816,-17.8833
12669,0.88831,0.22192,-0.02161,77.81982,8.05664,-28.32031
12678,0.80981,0.16101,-0.06909,77.45361,-6.5918,-47.18018
12687,0.73425,0.14026,-0.18005,78.125,-28.44238,-54.99268
12696,0.65198,0.17859,-0.4458,81.72607,-32.04346,-59.2041
12705,0.56348,0.13086,-0.75208,71.65527,-30.51758,-60.4248
12714,0.3949,-0.01111,-0.67737,54.13818,-23.01025,-58.28857
12723,0.3512,-0.05127,-0.48132,36.9873,-12.69531,-52.6123
12731,0.3512,-0.05127,-0.29382,29.35791,-5.98145,-46.56982
12740,0.38062,0.03503,-0.18433,30.15137,-2.44141,-44.12842
12748,0.38318,0.03503,-0.18433,34.5459,-0.36621,-48.0957
12756,0.42273,0.10596,-0.13025,34.5459,-0.36621,-48.0957
12765,0.43665,0.1842,-0.10571,37.90283,1.40381,-76.35498
12774,0.46777,0.23975,-0.05627,39.48975,6.7749,-95.58105
12783,0.50464,0.25549,-0.00427,42.23633,7.32422,-115.84473
12791,0.51904,0.27649,0.04138,42.23633,7.32422,-133.23975
12800,0.52917,0.28967,0.08142,61.2793,7.08008,-145.99609
12808,0.56543,0.3125,0.14526,48.15674,7.08008,-145.99609
12816,0.6272,0.31873,0.21606,50.72021,9.15527,-153.44238
12824,0.70923,0.34839,0.30884,52.06299,14.52637,-157.04346
12832,0.83276,0.37476,0.42896,51.87988,24.23096,-159.42383
12841,0.95349,0.35718,0.54114,51.51367,37.29248,-164.00146
12850,1.11218,0.27344,0.65515,51.2085,51.45264,-170.6543
12858,1.26123,0.16943,0.7594,50.90332,66.04004,-177.06299
12866,1.43787,-0.0072,0.8075,51.45264,80.01709,-179.56543
12875,1.5459,-0.15491,0.81738,50.59814,95.39795,-177.24609
12884,1.59277,-0.23193,0.80945,48.21777,112.79297,-166.99219
12892,1.69067,-0.27466,0.75916,47.18018,129.57764,-146.05713
12901,1.75049,-0.2196,0.59326,43.33496,142.02881,-118.16406
12910,1.75342,0.04614,0.5675,23.80371,152.09961,-81.90918
12918,1.76184,0.39673,0.58777,-1.15967,157.77588,-38.20801
12926,1.76404,0.73047,0.57739,-18.18848,154.60205,-5.98145
12935,1.6543,1.01135,0.55164,-29.11377,141.72363,5.98145
12944,1.42554,1.16248,0.51855,-34.91211,118.71338,4.5166
12952,1.10022,1.13293,0.40417,-32.53174,85.51025,-5.61523
12960,0.76819,0.87024,0.24023,-25.45166,46.75293,-22.27783
12968,0.40955,0.50342,0.12646,-20.81299,7.01904,-39.85596
12976,0.05481,0.15735,0.05273,-17.76123,-28.9917,-46.63086
12984,-0.21436,-0.13867,0.00793,-16.54053,-58.41064,-35.7666
12993,-0.42285,-0.33337,0.00134,-19.16504,-75.56152,-9.94873
13002,-0.53137,-0.42163,0.03528,-26.30615,-77.94189,26.97754
13011,-0.55737,-0.40808,0.073,-34.66797,-67.62695,70.25146
13019,-0.53027,-0.29175,0.08997,-41.56494,-49.80469,112.24365
13028,-0.43982,-0.13782,0.08264,-47.36328,-30.51758,148.07129
13037,-0.35779,0.02856,0.0896,-52.24609,-15.74707,173.88916
13045,-0.27539,0.18079,0.11035,-53.28369,-7.93457,188.7207
13053,-0.19775,0.31543,0.12268,-50.84229,-7.56836,194.70215
13062,-0.11243,0.42737,0.13696,-45.53223,-12.81738,193.35937
13071,-0.05933,0.50122,0.13879,-39.91699,-21.91162,184.87549
13080,0.00806,0.57935,0.1803,-35.88867,-33.20313,171.63086
13088,0.08752,0.62769,0.20862,-31.98242,-42.96875,155.82275
13097,0.17725,0.68408,0.24036,-29.72412,-46.08154,135.00977
13105,0.22241,0.69189,0.24573,-29.23584,-42.66357,108.76465
13113,0.22241,0.69189,0.24573,-29.41895,-34.85107,80.56641
13121,0.27002,0.62012,0.20886,-29.41895,-34.85107,49.31641
13129,0.27466,0.49487,0.14368,-31.49414,-24.78027,54.19922
13137,0.22205,0.35376,0.08374,-35.27832,-14.34326,33.69141
13146,0.18787,0.20044,0.02124,-38.08594,-8.66699,27.03857
13154,0.16138,0.07422,-0.02759,-39.42871,-8.78906,33.75244
13163,0.21228,0.02124,-0.01416,-39.79492,-13.12256,50.84229
13172,0.34998,0.0686,0.0177,-36.37695,-20.08057,73.66943
13180,0.48315,0.18835,0.07141,-29.84619,-27.09961,89.90479
13188,0.65137,0.22925,0.05786,-22.15576,-31.31104,97.71729
13196,0.84167,0.20337,0.04004,-20.20264,-31.12793,100.09766
13204,1.05725,0.17517,0.08203,-24.53613,-28.01514,101.07422
13213,1.37854,0.14734,0.17175,-28.19824,-25.14648,107.48291
13222,1.72937,0.18665,0.26221,-27.22168,-25.32959,117.49268
13231,2.15198,0.31934,0.43384,-23.80371,-28.13721,130.06592
13240,2.60742,0.51465,0.64282,-17.8833,-34.85107,141.60156
13248,2.97559,0.72656,0.84119,-8.8501,-44.92188,141.60156
13257,3.20154,0.86108,1.00916,-0.36621,-53.22266,126.77002
13265,3.29028,0.90625,1.13892,7.38525,-54.87061,100.95215
13273,3.21863,0.8302,1.16919,13.67187,-48.0957,68.48145
13281,3.00977,0.65271,1.13916,17.27295,-33.38623,35.27832
13289,2.74597,0.45935,1.07324,18.67676,-16.29639,9.76562
13297,2.48657,0.29138,1.00317,22.33887,-0.54932,-6.46973
13306,2.28113,0.18347,0.92444,28.62549,10.49805,-16.05225
13315,2.11987,0.17041,0.85388,37.53662,16.8457,-21.48438
13323,2.05115,0.19568,0.79407,46.44775,20.1416,-24.53613
13332,1.99719,0.23743,0.73547,55.05371,20.62988,-28.9917
13340,1.96167,0.27783,0.67639,62.56104,20.38574,-35.70557
13348,1.96167,0.27783,0.61194,67.50488,20.38574,-46.02051
13357,1.83289,0.31567,0.54968,69.82422,21.3623,-59.87549
13366,1.73401,0.28857,0.48535,71.10596,23.55957,-74.03564
13375,1.60925,0.28271,0.42615,71.83838,25.45166,-87.09717
13384,1.5188,0.29382,0.38281,72.63184,27.16064,-97.41211
13393,1.41431,0.30029,0.31177,74.46289,29.1748,-107.48291
13402,1.28613,0.29077,0.24561,75.37842,30.94482,-117.37061
13411,1.16638,0.3031,0.21655,74.76807,32.95898,-124.75586
13420,1.06226,0.34021,0.19836,75.31738,34.36279,-129.3335
13429,0.9613,0.39746,0.18347,76.53809,35.5835,-134.64355
13438,0.84656,0.44446,0.16846,77.51465,38.0249,-141.05225
13447,0.73608,0.47693,0.16064,77.14844,41.56494,-147.88818
13456,0.6272,0.48682,0.15503,75.68359,45.8374,-154.1748
13464,0.50793,0.51672,0.16052,74.34082,49.31641,-159.24072
13473,0.39917,0.52661,0.15613,75.07324,53.03955,-162.17041
13482,0.28931,0.51111,0.13171,76.84326,57.67822,-163.20801
13491,0.19104,0.49524,0.11694,77.20947,63.90381,-162.59766
13500,0.08887,0.49072,0.09937,76.59912,71.22803,-160.5835
13510,0.01245,0.44946,0.08093,76.29395,78.36914,-156.43311
13519,-0.05859,0.44922,0.07166,75.92773,85.14404,-149.71924
13527,-0.25281,0.34009,-0.07678,74.89014,90.94238,-141.72363
13536,0.0116,0.42334,0.31519,71.28906,104.61426,-134.09424
13545,-0.06946,0.76367,0.01868,74.646,100.70801,-134.0332
13554,-0.01416,0.6261,0.06238,79.10156,108.09326,-145.87402
13563,-0.08215,0.52917,-0.00281,75.19531,105.896,-157.16553
13572,-0.09912,0.38977,-0.01306,67.13867,108.64258,-165.95459
13581,-0.16785,0.24524,-0.02881,58.65479,110.71777,-169.73877
13589,-0.24255,0.08289,-0.09631,51.75781,112.73193,-164.55078
13598,-0.30566,-0.07825,-0.22229,43.15186,118.89648,-148.37646
13607,-0.3175,-0.19885,-0.33521,27.34375,130.12695,-122.07031
13615,-0.24573,-0.28174,-0.44849,6.22559,141.96777,-86.42578
13624,-0.11145,-0.26526,-0.50073,-15.93018,149.53613,-46.50879
13632,0.08032,-0.17688,-0.47803,-38.57422,144.83643,-7.56836
13640,0.3053,-0.01172,-0.37891,-56.45752,123.29102,29.1748
13648,0.52734,0.21521,-0.24121,-64.7583,86.54785,62.19482
13656,0.69409,0.38538,-0.1698,-64.51416,40.52734,86.48682
13664,0.78052,0.37561,-0.13831,-63.84277,-4.45557,94.7876
13672,0.77246,0.30774,-0.06482,-69.0918,-43.15186,93.93311
13680,0.7384,0.22681,0.021,-76.41602,-71.77734,100.95215
13688,0.7207,0.20569,0.10217,-83.61816,-89.17236,117.12646
13696,0.7428,0.22803,0.18945,-90.88135,-96.98486,137.20703
13704,0.7428,0.22803,0.18945,-96.86279,-100.70801,156.12793
13712,0.79944,0.26819,0.26917,-96.86279,-100.70801,170.8374
13720,0.8468,0.35767,0.31494,-100.46387,-102.41699,170.8374
13728,0.88672,0.43982,0.35559,-103.6377,-101.01318,180.78613
13736,0.92346,0.49268,0.3822,-106.26221,-99.85352,186.09619
13744,0.91748,0.48718,0.37183,-106.87256,-99.54834,186.09619
13752,0.91443,0.47034,0.36743,-107.54395,-100.3418,185.66895
13760,0.92847,0.47266,0.3905,-109.06982,-101.19629,187.31689
13768,0.95227,0.49744,0.42908,-108.39844,-101.98975,189.69727
13777,0.99084,0.5343,0.46265,-104.98047,-102.47803,191.28418
13785,1.01123,0.59717,0.49365,-100.21973,-102.72217,189.7583
13793,1.06763,0.63184,0.53308,-97.16797,-99.36523,185.05859
13801,1.13074,0.62109,0.57947,-94.9707,-89.90479,176.2085
13809,1.14734,0.56006,0.59973,-92.95654,-75.8667,162.78076
13817,1.14734,0.56006,0.59973,-90.02686,-59.021,146.72852
13825,1.13721,0.47595,0.5968,-90.02686,-59.021,130.61523
13833,1.10669,0.39978,0.58167,-86.73096,-41.07666,130.61523
13841,1.05432,0.31702,0.55493,-82.15332,-23.74268,116.08887
13849,0.98596,0.2074,0.49304,-74.89014,-9.09424,101.80664
13857,0.90686,0.10657,0.40942,-67.44385,2.38037,87.70752
13865,0.84595,0.02234,0.35413,-62.37793,12.20703,74.40186
13873,0.81592,-0.06274,0.33618,-57.80029,19.04297,63.41553
13881,0.83203,-0.12903,0.3595,-51.51367,21.24023,56.51855
13889,0.91455,-0.25476,0.33008,-42.11426,19.65332,55.54199
13898,1.04565,-0.34937,0.3335,-34.24072,19.83643,56.45752
13906,1.22192,-0.39014,0.39307,-29.84619,21.91162,57.31201
13915,1.44263,-0.42273,0.42407,-23.19336,22.70508,59.44824
13924,1.70239,-0.40552,0.46289,-15.07568,22.27783,61.15723
13933,1.99072,-0.33557,0.49951,-7.14111,20.08057,62.31689
13941,2.23499,-0.22314,0.50085,2.50244,16.23535,59.08203
13949,2.40369,-0.10571,0.47461,11.96289,12.51221,49.98779
13957,2.48901,0.01099,0.4209,18.9209,11.1084,36.68213
13965,2.48901,0.10474,0.34949,22.58301,11.90186,20.56885
13974,2.54797,0.16479,0.27417,23.4375,13.73291,2.86865
13983,2.54419,0.21472,0.2262,22.46094,13.79395,-14.70947
13991,2.54419,0.27722,0.21997,21.1792,8.30078,-33.93555
13999,2.52087,0.25391,0.21997,21.1792,-2.62451,-54.44336
14007,2.4552,0.23169,0.23486,22.2168,-2.62451,-54.44336
14016,2.34119,0.19666,0.28198,23.86475,-16.6626,-89.05029
14025,2.21191,0.18665,0.36877,26.7334,-43.51807,-95.45898
14034,2.0896,0.18237,0.45911,41.93115,-49.56055,-98.63281
14043,1.95642,0.19336,0.54456,50.65918,-48.40088,-97.41211
14051,1.81738,0.21106,0.54639,50.65918,-39.18457,-93.26172
14059,1.67554,0.26392,0.57812,57.43408,-39.18457,-93.26172
14070,1.44849,0.46106,0.55078,71.16699,-7.44629,-90.08789
14078,1.44849,0.49988,0.46436,77.51465,9.94873,-96.86279
14086,1.3114,0.49988,0.46436,80.26123,24.90234,-106.81152
14094,1.16919,0.49622,0.36731,80.26123,24.90234,-106.81152
14102,1.01282,0.46729,0.28186,81.29883,35.03418,-117.00439
14110,0.84692,0.42078,0.20679,82.82471,39.48975,-125.12207
14119,0.67786,0.37646,0.14404,84.7168,39.36768,-129.39453
14128,0.52441,0.33728,0.09412,87.58545,36.37695,-129.08936
14136,0.40234,0.3092,0.06226,90.51514,32.04346,-124.93896
14144,0.29895,0.31641,0.06042,93.44482,27.40479,-118.2251
14153,0.22632,0.34656,0.05957,97.0459,21.66748,-109.80225
14162,0.15894,0.40479,0.07275,100.21973,15.44189,-102.47803
14171,0.10913,0.5061,0.13293,102.66113,10.49805,-97.96143
14180,0.09644,0.61121,0.19922,106.99463,7.99561,-97.10693
14188,0.0708,0.71667,0.24231,112.48779,9.70459,-102.29492
14197,0.01465,0.78809,0.27124,115.84473,16.60156,-114.25781
14205,-0.02063,0.76233,0.29211,117.06543,25.14648,-127.31934
14214,-0.06189,0.71582,0.2981,117.98096,34.42383,-137.69531
14223,-0.11047,0.64404,0.28564,119.14063,44.25049,-144.28711
14232,-0.12122,0.54175,0.25659,120.05615,54.13818,-143.61572
14241,-0.12488,0.427,0.20068,119.75098,63.23242,-137.3291
14249,-0.09875,0.28723,0.12488,115.84473,71.89941,-125.97656
14257,-0.04358,0.15552,0.05786,107.17773,82.58057,-111.02295
14266,0.01611,0.01453,-0.02917,94.36035,94.90967,-94.60449
14275,0.10425,-0.14807,-0.11646,77.39258,106.56738,-78.73535
14284,0.16833,-0.24695,-0.2019,59.81445,115.90576,-64.14795
14292,0.28564,-0.36133,-0.32007,44.55566,122.49756,-47.24121
14301,0.43127,-0.45154,-0.46594,30.39551,125,-29.60205
14309,0.59375,-0.50586,-0.54663,11.59668,118.83545,-12.02393
14318,0.70593,-0.45557,-0.53027,-9.82666,97.96143,5.79834
14326,0.79285,-0.33411,-0.44275,-27.28271,60.91309,27.46582
14335,0.8623,-0.18872,-0.31042,-35.88867,11.16943,53.83301
14344,0.93787,-0.05688,-0.18896,-37.17041,-43.70117,79.22363
14353,0.97876,0.06238,-0.07239,-36.13281,-96.31348,95.58105
14362,1.00391,0.16565,0.05212,-38.33008,-136.71875,102.23389
14370,0.9707,0.2196,0.1499,-45.47119,-160.40039,102.96631
14379,0.91687,0.22412,0.24744,-59.75342,-164.85596,101.98975
14387,0.87378,0.22119,0.35693,-79.22363,-152.89307,101.07422
14395,0.8374,0.21289,0.4668,-97.10693,-132.75146,102.41699
14403,0.79761,0.22681,0.54309,-107.2998,-111.75537,108.21533
14412,0.76831,0.23035,0.53394,-109.00879,-95.58105,118.16406
14420,0.73962,0.26135,0.51233,-108.27637,-84.8999,129.08936
14428,0.72205,0.31262,0.4967,-106.81152,-79.46777,139.16016
14436,0.68542,0.36719,0.46179,-102.7832,-78.67432,146.05713
14445,0.64551,0.4248,0.43054,-98.57178,-80.44434,149.35303
14454,0.60071,0.453,0.39954,-93.81104,-83.6792,149.10889
14462,0.55298,0.46277,0.38538,-89.96582,-87.82959,146.78955
14471,0.51587,0.46008,0.3877,-87.28027,-89.84375,143.9209
14479,0.47205,0.4552,0.36719,-83.49609,-89.78271,141.72363
14488,0.45142,0.46875,0.34949,-81.23779,-86.48682,141.23535
14496,0.46155,0.50037,0.3512,-80.87158,-79.22363,142.45605
14505,0.47815,0.49927,0.32666,-80.56641,-71.96045,142.82227
14513,0.49072,0.46912,0.29065,-79.89502,-65.61279,140.25879
14521,0.49072,0.46912,0.27136,-79.65088,-59.93652,135.13184
14529,0.46765,0.44189,0.27136,-79.65088,-56.45752,131.34766
14537,0.44641,0.38025,0.23853,-76.66016,-56.45752,131.34766
14546,0.43225,0.30066,0.21228,-72.75391,-55.05371,128.72314
14555,0.41528,0.24866,0.20947,-67.32178,-54.6875,124.38965
14564,0.40051,0.2113,0.19653,-49.98779,-54.62646,121.82617
14573,0.38159,0.19019,0.13354,-43.15186,-51.81885,117.67578
14581,0.38672,0.18372,0.15173,-43.15186,-44.37256,111.99951
14589,0.39319,0.14368,0.11914,-39.0625,-44.37256,111.99951
14597,0.40479,0.10449,0.11389,-40.22217,-30.09033,105.10254
14605,0.44031,0.07996,0.1272,-45.16602,-9.39941,99.60938
14614,0.49451,0.08447,0.14514,-50.41504,13.24463,94.36035
14622,0.56543,0.09973,0.16211,-51.63574,33.26416,89.96582
14630,0.6665,0.07629,0.15137,-48.58398,46.32568,85.51025
14638,0.81482,-0.0116,0.12915,-43.15186,52.36816,80.99365
14646,1.03247,-0.1333,0.14282,-39.85596,52.12402,79.1626
14655,1.36926,-0.16125,0.26038,-39.24561,45.95947,84.96094
14663,1.84485,-0.04993,0.44421,-37.90283,35.03418,97.90039
14671,2.37048,0.28113,0.70044,-33.99658,21.54541,112.60986
14679,2.94153,0.75159,0.99573,-25.32959,9.0332,123.90137
14687,3.4668,1.30933,1.25146,-9.8877,0.18311,121.76514
14695,3.8418,1.79919,1.36816,8.36182,-4.02832,97.83936
14703,3.81653,1.79919,1.36816,19.65332,-0.79346,54.38232
14711,3.98889,2.08997,1.40344,19.65332,-0.79346,54.38232
14719,3.95911,2.09961,1.35828,20.44678,8.72803,0.12207
14727,3.70239,1.92896,1.28772,14.22119,18.24951,-55.35889
14735,3.27673,1.70667,1.22437,9.76562,24.35303,-102.23389
14743,2.79871,1.45483,1.12305,11.23047,25.63477,-134.0332
14751,2.34814,1.23462,1.03857,15.56396,25.14648,-152.83203
14759,1.96326,1.04395,0.97253,20.56885,25.45166,-162.53662
14767,1.65649,0.88855,0.90466,26.67236,27.28271,-165.64941
14775,1.40784,0.80115,0.84631,32.95898,30.15137,-163.20801
14784,1.25073,0.79175,0.81165,39.55078,33.5083,-156.06689
14792,1.13232,0.80798,0.75317,46.99707,37.59766,-149.84131
14800,1.01062,0.79468,0.67627,53.4668,42.78564,-148.19336
14808,0.88989,0.7561,0.59973,58.59375,47.79053,-149.78027
14816,0.88989,0.7561,0.59973,62.74414,50.84229,-152.09961
14824,0.76245,0.70007,0.51526,62.74414,50.84229,-152.09961
14832,0.62878,0.62634,0.42725,66.58936,52.00195,-153.32031
14840,0.50647,0.55273,0.34131,70.80078,51.81885,-152.40479
14848,0.39282,0.49109,0.26257,74.09668,50.90332,-149.35303
14856,0.29346,0.42957,0.1825,77.0874,49.68262,-144.65332
14865,0.20435,0.37354,0.10938,79.1626,47.97363,-138.3667
14873,0.12012,0.34363,0.05164,80.13916,46.20361,-131.28662
14881,0.05945,0.33936,0.01514,80.32227,45.10498,-124.51172
14889,0.00952,0.35925,0.00085,80.68848,44.73877,-118.71338
14897,-0.02539,0.37378,-0.00659,81.4209,45.95947,-115.84473
14905,-0.07544,0.36902,-0.03674,83.31299,48.27881,-116.08887
14913,-0.12097,0.36035,-0.05652,84.28955,51.3916,-117.1875
14921,-0.15015,0.34363,-0.06104,83.6792,55.29785,-117.12646
14929,-0.15015,0.34363,-0.06104,83.12988,58.95996,-116.08887
14937,-0.17883,0.33423,-0.05872,83.12988,58.95996,-116.08887
14945,-0.21912,0.34351,-0.04956,82.4585,63.17139,-113.40332
14954,-0.23511,0.35876,-0.02637,81.90918,68.42041,-109.375
14962,-0.24585,0.38806,-0.00806,82.03125,74.21875,-105.34668
14970,-0.2406,0.40332,0.00159,82.27539,79.71191,-101.37939
14978,-0.22766,0.41174,0.00684,81.90918,85.26611,-98.2666
14986,-0.19873,0.41943,0.01453,80.13916,90.51514,-97.41211
14994,-0.15137,0.38464,0.01672,78.06396,95.70313,-98.81592
15002,-0.11072,0.30347,-0.00232,75.80566,99.97559,-102.90527
15010,-0.0946,0.18079,-0.05994,72.87598,103.88184,-106.56738
15018,-0.04932,0.0127,-0.14636,68.2373,108.82568,-105.896
15026,-0.02368,-0.18286,-0.27026,60.97412,113.40332,-101.19629
15035,-0.00549,-0.33801,-0.37341,48.9502,116.76025,-90.82031
15043,0.07703,-0.50195,-0.46228,36.07178,116.08887,-67.13867
15051,0.07703,-0.50195,-0.54456,25.02441,106.44531,-32.95898
15059,0.23096,-0.63269,-0.54456,25.02441,86.54785,2.50244
15067,0.39001,-0.61877,-0.54211,13.12256,86.54785,2.50244
15075,0.55713,-0.48169,-0.46252,3.72314,58.77686,39.73389
15083,0.76489,-0.21899,-0.33301,-1.46484,24.29199,76.17188
15091,1.0127,0.04504,-0.18237,-3.11279,-13.30566,100.5249
15099,1.20691,0.24609,-0.06213,-1.70898,-52.30713,107.78809
15107,1.35107,0.36462,0.0271,-1.52588,-87.34131,104.98047
15115,1.40771,0.40015,0.07642,-5.85937,-114.50195,99.97559
15123,1.40625,0.37842,0.1377,-17.51709,-128.96729,95.45898
15131,1.34021,0.31335,0.21008,-33.26416,-133.11768,93.20068
15139,1.27661,0.24036,0.28186,-46.56982,-131.40869,97.16797
15147,1.2002,0.2124,0.33826,-56.39648,-128.35693,105.59082
15155,1.2002,0.2124,0.33826,-62.07275,-125.61035,115.35645
15163,1.1261,0.22754,0.37573,-62.07275,-125.61035,123.22998
15171,1.03625,0.2655,0.37744,-64.5752,-123.10791,123.22998
15179,0.95789,0.32849,0.37402,-66.22314,-119.93408,128.90625
15187,0.89172,0.35291,0.35474,-67.56592,-117.37061,130.79834
15195,0.80322,0.35645,0.33362,-69.15283,-114.62402,127.2583
15203,0.72607,0.33887,0.33936,-71.3501,-111.26709,121.94824
15211,0.64551,0.34705,0.34668,-72.20459,-107.48291,118.34717
15219,0.61426,0.38074,0.36389,-70.73975,-102.66113,116.76025
15227,0.58203,0.36719,0.33374,-67.19971,-97.41211,112.854
15235,0.54102,0.31543,0.29895,-64.69727,-91.24756,104.73633
15243,0.49377,0.2417,0.27686,-63.7207,-84.59473,97.0459
15251,0.49377,0.1803,0.27747,-62.68311,-78.73535,91.4917
15259,0.45801,0.1803,0.27747,-60.2417,-72.50977,87.64648
15267,0.4281,0.13806,0.28137,-60.2417,-72.50977,87.64648
15275,0.40686,0.11926,0.28882,-56.64063,-65.85693,84.7168
15283,0.41284,0.11267,0.30042,-52.55127,-58.28857,81.90918
15291,0.44116,0.09998,0.29846,-47.48535,-49.19434,77.81982
15299,0.45044,0.09436,0.26562,-43.15186,-38.63525,70.19043
15307,0.47913,0.07556,0.25696,-42.66357,-25.93994,59.99756
15315,0.51453,0.03442,0.24731,-42.72461,-12.3291,49.07227
15323,0.55212,-0.02173,0.22095,-40.89355,-0.91553,39.85596
15331,0.63025,-0.0675,0.20874,-38.87939,8.8501,34.17969
15339,0.79883,-0.08191,0.2345,-37.35352,16.35742,33.81348
15347,1.04248,-0.0719,0.29395,-35.33936,20.1416,37.47559
15355,1.04248,-0.0719,0.3877,-32.77588,20.01953,38.75732
15363,1.33533,-0.07715,0.39404,-32.77588,20.01953,36.74316
15371,1.62305,-0.12585,0.47791,-27.83203,18.85986,36.74316
15379,1.89587,-0.14502,0.55408,-22.88818,20.01953,32.77588
15387,2.21887,-0.19189,0.60852,-18.49365,27.16064,28.19824
15395,2.52295,-0.17834,0.63794,-13.06152,41.3208,23.86475
15403,2.81018,-0.08594,0.64319,-8.42285,57.55615,19.40918
15411,3.00269,0.11011,0.63232,-3.96729,71.65527,12.57324
15419,3.11169,0.37952,0.59106,2.56348,81.84814,3.54004
15427,3.1709,0.61658,0.48547,10.86426,86.12061,-8.23975
15435,3.13171,0.77795,0.34985,16.17432,84.22852,-27.03857
15443,2.98193,0.85498,0.25012,15.68604,75.56152,-53.71094
15451,2.75134,0.8114,0.19739,10.68115,60.11963,-84.10645
15459,2.75134,0.8114,0.19739,6.7749,39.73389,-111.38916
15467,2.4574,0.68542,0.19385,6.7749,39.73389,-127.01416
15475,2.15344,0.47876,0.19385,7.69043,18.24951,-130.37109
15483,1.88025,0.2749,0.21338,10.37598,-1.46484,-137.63428
15491,1.64014,0.12927,0.25598,13.61084,-15.93018,-132.20215
15499,1.43958,0.04761,0.30554,18.31055,-23.74268,-116.69922
15507,1.27209,0.01733,0.35327,23.92578,-23.37646,-94.36035
15515,1.14624,0.09497,0.41504,29.54102,-15.44189,-69.33594
15523,1.10693,0.23059,0.45508,35.82764,-0.91553,-46.02051
15531,1.06018,0.38403,0.43213,42.17529,18.9209,-33.08105
15539,1.02063,0.45605,0.34314,45.59326,40.71045,-30.63965
15547,0.96741,0.50073,0.26294,43.02979,60.36377,-34.60693
15555,0.96741,0.50073,0.19861,36.9873,72.87598,-41.01563
15563,0.90564,0.51245,0.19861,36.9873,77.51465,-47.97363
15571,0.82556,0.49438,0.14636,31.86035,77.51465,-47.97363
15579,0.70679,0.44263,0.08923,29.23584,75.19531,-53.71094
15587,0.58691,0.35144,0.02344,27.89307,67.50488,-55.23682
15595,0.46521,0.26184,-0.03577,26.12305,57.18994,-52.73438
15603,0.33154,0.18701,-0.0686,21.54541,45.89844,-47.24121
15611,0.20752,0.16296,-0.04443,15.93018,35.33936,-37.90283
15619,0.10645,0.23352,0.03931,13.3667,25.93994,-26.48926
15627,0.09106,0.35156,0.15295,17.57813,21.30127,-18.24951
15635,0.07336,0.45764,0.19458,28.74756,21.3623,-20.50781
15643,0.06384,0.4635,0.15808,43.51807,26.24512,-32.65381
15651,0.02051,0.43042,0.11011,52.00195,31.43311,-49.86572
15659,0.02051,0.43042,0.11011,51.2085,37.71973,-66.52832
15667,-0.04224,0.39539,0.10352,51.2085,37.71973,-77.20947
15675,-0.08533,0.36584,0.13904,46.99707,46.14258,-77.20947
15684,-0.10974,0.34253,0.18518,43.82324,55.11475,-82.76367
15692,-0.11768,0.31458,0.21655,43.09082,63.65967,-85.08301
15700,-0.10693,0.30505,0.23706,45.22705,70.86182,-84.8999
15708,-0.0708,0.31348,0.23694,48.64502,76.96533,-83.80127
15716,-0.02075,0.30823,0.20471,51.51367,82.70264,-84.04541
15724,0.02075,0.29358,0.18079,50.65918,87.95166,-86.85303
15733,0.05859,0.23853,0.16895,47.48535,92.95654,-91.6748
15741,0.07092,0.17969,0.17151,44.00635,97.10693,-95.94727
15750,0.10999,0.10254,0.15247,42.41943,100.46387,-95.27588
15758,0.15308,-0.00476,0.08813,41.44287,100.70801,-87.82959
15766,0.19678,-0.13342,0.01794,39.42871,96.13037,-76.47705
15774,0.31421,-0.30591,-0.06836,36.8042,87.82959,-59.38721
15782,0.39502,-0.41748,-0.16736,34.42383,76.72119,-38.75732
15790,0.47656,-0.45203,-0.22388,29.60205,62.62207,-14.03809
15798,0.47656,-0.45203,-0.22388,23.07129,41.19873,16.29639
15806,0.58655,-0.40649,-0.2356,23.07129,41.19873,48.03467
15814,0.69836,-0.23303,-0.16187,14.83154,12.02393,48.03467
15822,0.84595,-0.06128,-0.04053,10.55908,-22.52197,76.0498
15831,0.93994,0.0719,0.04053,13.48877,-61.88965,92.46826
15839,0.98792,0.15283,0.08765,19.22607,-100.76904,100.58594
15847,1.00586,0.23108,0.1377,18.61572,-132.26318,108.58154
15855,1.01599,0.30396,0.20667,8.91113,-150.6958,116.39404
15863,1.00562,0.3645,0.30249,-6.89697,-154.35791,122.00928
15871,0.99377,0.40735,0.38989,-22.09473,-149.35303,127.31934
15879,0.96985,0.44641,0.44238,-31.61621,-143.67676,131.95801
15887,0.93323,0.46619,0.45508,-34.48486,-140.93018,135.37598
15895,0.88025,0.4801,0.43823,-33.56934,-140.93018,136.90186
15903,0.81726,0.47571,0.39331,-32.89795,-141.72363,137.45117
15911,0.81726,0.47571,0.39331,-34.30176,-142.08984,137.3291
15919,0.75269,0.48621,0.36133,-34.30176,-142.08984,136.77979
15927,0.69055,0.48535,0.33228,-37.04834,-142.33398,136.77979
15935,0.65515,0.47693,0.30652,-38.87939,-142.57812,136.47461
15943,0.62415,0.4917,0.28394,-40.58838,-142.76123,134.39941
15951,0.59668,0.51526,0.27942,-42.29736,-141.54053,129.94385
15959,0.59375,0.53931,0.28687,-44.18945,-138.18359,124.51172
15967,0.573,0.57373,0.29224,-46.02051,-133.60596,118.53027
15975,0.6012,0.60217,0.32385,-48.82813,-128.72314,114.86816
15983,0.65857,0.61279,0.34607,-49.74365,-123.7793,113.09814
15991,0.69324,0.64221,0.38037,-49.07227,-118.89648,106.99463
15999,0.73486,0.61853,0.3905,-45.28809,-112.73193,96.37451
16007,0.73486,0.56091,0.33997,-40.2832,-105.0415,82.09229
16015,0.72375,0.56091,0.33997,-39.36768,-94.72656,68.2373
16023,0.72742,0.49341,0.31641,-39.36768,-94.72656,68.2373
16031,0.72302,0.44409,0.30444,-41.19873,-81.72607,54.32129
16039,0.72632,0.38721,0.28455,-42.41943,-67.56592,41.25977
16047,0.72607,0.29431,0.25037,-44.00635,-54.6875,30.39551
16055,0.68152,0.22363,0.24976,-47.60742,-45.53223,24.59717
16063,0.71619,0.10596,0.27576,-49.25537,-39.48975,26.97754
16071,0.76672,0.0332,0.31287,-46.14258,-33.02002,33.14209
16079,0.85693,-0.00391,0.33997,-40.64941,-24.41406,39.42871
16087,1.00525,-0.03149,0.40735,-36.19385,-13.67187,44.6167
16095,1.21472,-0.03711,0.47815,-31.86035,-5.06592,46.32568
16103,1.47559,-0.0686,0.53833,-25.75684,2.80762,44.06738
16111,1.47559,-0.0686,0.59473,-19.04297,7.56836,39.00146
16119,1.74451,-0.09741,0.59473,-19.04297,10.86426,33.81348
16127,2.04065,-0.09448,0.69714,-12.45117,10.86426,33.81348
16135,2.32166,-0.06763,0.79443,-4.27246,13.12256,30.33447
16143,2.6178,-0.00085,0.9032,6.40869,17.21191,26.48926
16151,2.86169,0.11279,0.96143,17.82227,24.59717,20.62988
16159,3.01587,0.2467,0.96265,28.74756,36.86523,11.90186
16167,3.06519,0.39832,0.92944,35.03418,53.40576,0.61035
16175,3.03247,0.53552,0.85437,37.10938,72.44873,-11.96289
16183,2.96301,0.61792,0.74719,36.49902,89.2334,-25.6958
16191,2.86121,0.69788,0.6571,31.73828,100.83008,-40.03906
16199,2.71667,0.76855,0.55212,26.67236,106.44531,-54.99268
16207,2.55933,0.81287,0.46643,22.2168,104.73633,-70.73975
16215,2.55933,0.81287,0.46643,17.27295,95.8252,-88.25684
16223,2.36987,0.8468,0.42639,17.27295,95.8252,-105.95703
16231,2.17371,0.80078,0.40723,13.79395,78.79639,-105.95703
16239,1.94861,0.71155,0.40222,12.81738,57.00684,-121.76514
16247,1.70081,0.59912,0.42273,12.3291,34.42383,-133.23975
16255,1.46265,0.50513,0.47107,13.91602,15.19775,-137.81738
16263,1.25378,0.43958,0.50061,19.59229,1.58691,-135.31494
16271,1.04993,0.37195,0.48535,26.55029,-4.69971,-128.23486
16279,0.8717,0.32275,0.47791,30.09033,-1.89209,-116.94336
16287,0.71741,0.29858,0.44788,29.78516,6.95801,-102.53906
16295,0.60986,0.32568,0.43176,28.13721,20.20264,-86.9751
16303,0.50879,0.36182,0.39429,27.28271,33.63037,-74.21875
16311,0.50879,0.39661,0.36353,28.68652,45.28809,-64.94141
16319,0.42932,0.39661,0.36353,44.31152,53.22266,-59.75342
16327,0.37085,0.44263,0.34033,32.4707,53.22266,-59.75342
16335,0.29883,0.45312,0.27893,39.36768,57.43408,-60.05859
16343,0.23193,0.46875,0.25391,45.59326,58.22754,-63.78174
16351,0.19702,0.48035,0.25232,52.00195,55.84717,-70.67871
16359,0.13892,0.49548,0.23413,61.03516,49.31641,-81.23779
16367,0.07324,0.50049,0.2428,69.94629,41.07666,-93.07861
16375,0.0033,0.50281,0.2627,79.1626,32.22656,-104.79736
16383,-0.07068,0.46851,0.25769,89.53857,24.84131,-114.56299
16391,-0.15112,0.43335,0.2572,97.47314,21.24023,-120.60547
16399,-0.22229,0.41064,0.28833,101.07422,23.4375,-123.35205
16407,-0.28247,0.41296,0.33618,102.35596,32.65381,-122.86377
16415,-0.28247,0.41296,0.33618,103.39355,48.33984,-119.62891
16427,-0.34448,0.42529,0.39209,103.57666,69.94629,-114.62402
16435,-0.34387,0.43384,0.3667,101.25732,95.15381,-109.55811
16443,-0.31226,0.42444,0.33362,95.64209,120.42236,-104.55322
16451,-0.25977,0.38892,0.27295,87.76855,142.08984,-100.3418
16460,-0.20569,0.31506,0.18591,80.81055,158.99658,-97.10693
16468,-0.17188,0.23437,0.08569,74.03564,170.53223,-93.81104
16476,-0.17188,0.23437,-0.07153,67.87109,176.14746,-88.1958
16484,-0.14844,0.11499,-0.07153,83.49609,175.96436,-79.22363
16492,-0.10522,-0.04187,-0.23218,58.59375,175.96436,-79.22363
16500,-0.06848,-0.16138,-0.35217,45.10498,168.82324,-65.42969
16508,-0.0094,-0.2937,-0.48279,33.26416,154.29687,-42.11426
16516,0.11377,-0.36047,-0.5199,22.94922,130.24902,-9.82666
16524,0.29639,-0.31677,-0.44812,15.19775,94.36035,24.84131
16532,0.50769,-0.22144,-0.30994,13.91602,46.93604,56.57959
16540,0.66138,-0.07251,-0.16797,18.00537,-3.90625,80.44434
16548,0.78613,0.00122,-0.08838,22.70508,-49.31641,95.94727
16556,0.89685,-0.03149,-0.05115,23.49854,-83.43506,99.4873
16564,0.91772,-0.07178,-0.02905,16.90674,-109.13086,93.44482
16572,0.91736,-0.12903,0.01025,4.02832,-123.29102,92.28516
16580,0.91736,-0.12903,0.01025,-16.54053,-129.21143,102.17285
16588,0.92554,-0.11658,0.12573,-16.54053,-129.21143,121.09375
16596,0.95935,-0.02722,0.30261,-36.9873,-126.95313,121.09375
16604,0.99194,0.09802,0.42834,-46.875,-121.521,143.06641
16612,1.01807,0.23096,0.47717,-46.32568,-118.53027,161.56006
16620,1.03748,0.36804,0.48608,-42.23633,-118.71338,172.9126
16628,1.03882,0.4668,0.46887,-38.75732,-122.80273,176.45264
16636,1.01111,0.55054,0.46826,-38.20801,-129.63867,171.50879
16644,0.96082,0.60547,0.47205,-38.33008,-137.3291,160.33936
16652,0.88281,0.60608,0.42749,-38.94043,-144.16504,146.05713
16660,0.7876,0.6167,0.40466,-42.60254,-147.52197,131.71387
16668,0.69006,0.60559,0.37622,-49.43848,-146.85059,119.87305
16676,0.59631,0.55151,0.35693,-57.73926,-144.104,110.90088
16684,0.61108,0.55151,0.35693,-63.90381,-139.52637,106.20117
16692,0.55835,0.50293,0.37146,-63.90381,-139.52637,106.20117
16701,0.52283,0.45679,0.3573,-64.81934,-134.09424,105.34668
16709,0.50793,0.40137,0.31604,-64.39209,-127.31934,105.34668
16717,0.49402,0.37988,0.27966,-65.49072,-117.67578,105.16357
16725,0.50476,0.396,0.2644,-68.78662,-106.93359,103.33252
16733,0.51794,0.40149,0.26038,-71.77734,-94.84863,97.229
16741,0.5426,0.37012,0.25879,-72.3877,-84.10645,87.95166
16749,0.56689,0.33765,0.2666,-70.37354,-76.0498,77.69775
16757,0.57825,0.29236,0.25745,-66.22314,-69.88525,68.72559
16765,0.58167,0.21716,0.21729,-60.36377,-64.27002,61.21826
16773,0.58911,0.15796,0.18469,-56.88477,-56.27441,55.9082
16781,0.62366,0.13562,0.17139,-55.9082,-45.34912,54.07715
16789,0.71741,0.13757,0.18115,-55.23682,-33.02002,53.4668
16797,0.7063,0.13757,0.18115,-52.91748,-20.69092,51.02539
16805,0.80945,0.11426,0.1571,-52.91748,-20.69092,51.02539
16813,0.94922,0.06677,0.146,-51.94092,-10.19287,45.77637
16821,1.12329,-0.00256,0.16553,-52.4292,-2.92969,38.33008
16829,1.40198,-0.10583,0.24731,-52.49023,0.61035,31.06689
16837,1.74841,-0.16187,0.37268,-49.43848,-1.15967,27.83203
16845,2.18103,-0.13989,0.51526,-40.71045,-5.06592,31.12793
16853,2.63281,0.02087,0.64966,-29.1748,-9.21631,40.83252
16861,3.07129,0.39478,0.85437,-17.82227,-9.58252,49.49951
16869,3.42712,0.77832,0.99707,-4.88281,-5.12695,48.58398
16877,3.63416,1.12744,1.08411,5.85937,2.13623,35.21729
16885,3.70435,1.38,1.09888,11.41357,15.50293,11.71875
16893,3.70435,1.38,1,11.47461,33.81348,-21.1792
16901,3.58435,1.46826,1,11.47461,51.94092,-59.69238
16910,3.32397,1.36719,0.83044,-2.2583,62.98828,-94.66553
16919,2.99719,1.15991,0.57581,-6.04248,62.92725,-119.75098
16928,2.29895,0.77234,0.49414,-3.35693,52.4292,-134.09424
16937,1.99463,0.65479,0.44775,0.61035,37.71973,-139.22119
16946,1.75061,0.56335,0.43909,4.76074,23.07129,-138.12256
16954,1.75061,0.49658,0.44727,9.33838,11.84082,-132.20215
16963,1.34778,0.54041,0.49622,15.13672,5.31006,-122.31445
16971,1.34778,0.54041,0.49622,22.27783,4.88281,-112.06055
16979,1.24475,0.62012,0.5354,22.27783,4.88281,-107.97119
16987,1.13232,0.69446,0.51392,30.70068,12.26807,-107.97119
16996,1.01147,0.72607,0.47205,34.97314,25.20752,-110.65674
17004,0.8916,0.70081,0.41089,35.09521,40.22217,-116.33301
17013,0.74597,0.62769,0.33557,33.3252,54.32129,-123.04688
17021,0.59241,0.54834,0.26501,32.04346,64.81934,-127.92969
17030,0.42517,0.46765,0.18555,31.25,70.37354,-129.21143
17038,0.27832,0.38599,0.11926,31.86035,71.47217,-126.0376
17047,0.14172,0.32031,0.0636,32.95898,69.0918,-119.50684
17056,0.01794,0.28284,0.03113,33.99658,63.78174,-110.5957
17065,-0.09058,0.29199,0.04175,34.5459,56.9458,-100.64697
17074,-0.16223,0.32153,0.08899,36.86523,47.79053,-90.75928
17083,-0.2052,0.38367,0.14124,43.09082,39.67285,-84.35059
17091,-0.24268,0.5022,0.21423,52.18506,33.20313,-84.22852
17100,-0.26807,0.59131,0.26697,63.47656,28.25928,-90.88135
17109,-0.30542,0.61646,0.26941,76.53809,25.6958,-103.69873
17118,-0.36902,0.59094,0.24133,86.12061,25.93994,-131.46973
17127,-0.42212,0.53796,0.23364,88.13477,44.37256,-140.25879
17135,-0.45776,0.4801,0.24341,83.25195,44.37256,-140.25879
17144,-0.4646,0.43774,0.2782,74.76807,63.04932,-144.104
17153,-0.42639,0.40369,0.31982,66.46729,106.20117,-140.68604
17162,-0.3291,0.36365,0.34021,61.4624,125.18311,-138.5498
17171,-0.21387,0.28796,0.24585,61.76758,140.50293,-138.61084
17180,0.08972,-0.02551,0.13672,58.77686,150.6958,-137.93945
17189,0.16077,-0.26782,-0.02539,52.4292,153.68652,-139.4043
17198,0.20496,-0.4917,-0.19458,39.85596,154.66309,-141.29639
17207,0.2749,-0.78052,-0.39819,25.26855,155.27344,-133.66699
17216,0.40613,-1.0343,-0.53638,7.20215,148.86475,-114.50195
17225,0.54626,-1.16443,-0.55688,-13.00049,124.26758,-78.85742
17234,0.67139,-1.03064,-0.41602,-29.90723,79.28467,-25.93994
17242,0.86536,-0.74243,-0.20581,-33.63037,21.05713,33.99658
17251,1.07837,-0.42261,-0.00635,-24.78027,-41.07666,80.13916
17259,1.1748,-0.11694,0.15479,-13.85498,-98.51074,101.19629
17267,1.20776,0.08777,0.28125,-9.0332,-138.85498,105.95703
17276,1.19299,0.1842,0.36328,-14.77051,-155.94482,101.5625
17285,1.13672,0.17175,0.45654,-31.25,-149.16992,92.5293
17293,1.06409,0.08521,0.53442,-50.1709,-129.3335,87.40234
17301,1.06409,0.08521,0.53442,-63.41553,-110.10742,91.55273
17310,0.98511,0.00891,0.53467,-69.15283,-95.45898,104.37012
17319,0.78491,-0.052,0.51501,-68.0542,-84.53369,123.04688
17328,0.72363,-0.02441,0.41821,-63.5376,-76.53809,142.33398
17337,0.64856,0.01318,0.31738,-60.54688,-70.37354,158.87451
17345,0.64856,0.0769,0.24731,-58.95996,-66.04004,171.93604
17353,0.58508,0.0769,0.24731,-57.80029,-65.06348,179.44336
17361,0.53394,0.13916,0.17456,-57.80029,-65.06348,179.44336
17370,0.46338,0.25171,0.1405,-57.37305,-66.71143,177.79541
17379,0.4209,0.33862,0.14099,-56.21338,-77.88086,170.47119
17387,0.39111,0.36633,0.12683,-52.67334,-77.88086,170.47119
17396,0.33069,0.41199,0.13269,-48.88916,-84.8999,149.35303
17404,0.2926,0.45996,0.15161,-45.53223,-90.88135,149.35303
17412,0.27051,0.53125,0.16199,-41.80908,-94.23828,141.05225
17420,0.30347,0.54211,0.14832,-39.36768,-94.66553,133.66699
17429,0.34753,0.55505,0.1582,-39.61182,-91.6748,122.9248
17437,0.40576,0.54004,0.1842,-42.5415,-84.65576,111.6333
